timestamp,rel_time,acc_x,acc_y,acc_z,gyro_x,gyro_y,gyro_z,azimuth,pitch,roll,label
0.0,0.0,0.0,0.0,0.0,0.0,-0.05467244,0.01160644,215.54377999999997,56.812492000000006,23.606281,SIT
9846489000.0,1.5020938008092344e-05,0.00200181407853961,0.00322649790905416,0.028256136924028397,-0.0004019651678390801,-0.06047566,0.008857545999999999,216.29818999999998,56.455315,23.412245000000002,SIT
29392943000.0,7.40561808925122e-05,0.006213753949850798,0.009601707570254803,0.08446689695119858,-0.0011835420737043023,-0.04917465,0.006414085,217.04776,56.087140000000005,23.224407,SIT
58351563000.0,0.00020604862947948277,0.012500871904194355,0.019003843888640404,0.16804786026477814,-0.0024526186753064394,-0.058643065,0.0076358155,217.81188999999998,55.70101999999999,23.002229999999997,SIT
96303505000.0,0.0004379139863885939,0.020684679970145226,0.03127005696296692,0.2780318260192871,-0.004004688002169132,-0.05100725,0.015577064,218.5708,55.301376,22.783396,SIT
142713340000.0,0.0007939626812003553,0.030701255425810814,0.04595213383436203,0.4125552475452423,-0.006084506865590811,-0.0571159,0.013439035,219.36975,54.894314,22.503475,SIT
196946920000.0,0.001296963426284492,0.04244580119848251,0.06263648718595505,0.5695987343788147,-0.00853071641176939,-0.05009095,0.017104227,220.15614,54.475956000000004,22.227048999999997,SIT
258291480000.0,0.0019649954047054052,0.055775150656700134,0.08096954971551895,0.7470535039901733,-0.011188696138560772,-0.0571159,0.014355333500000001,220.96936000000002,54.045080000000006,21.892733,SIT
325976980000.0,0.002824720460921526,0.07053785771131516,0.10053055733442307,0.9426283240318298,-0.014053271152079105,-0.07422013,0.009162978,221.7624,53.605824,21.569755999999998,SIT
399197400000.0,0.0038657356053590775,0.08659391850233078,0.12158651649951935,1.1539839506149292,-0.01747630536556244,-0.07422013,0.010079277,222.53983,53.161373,21.25572,SIT
477131340000.0,0.005109918769448996,0.10381776094436646,0.14426633715629578,1.3786765336990356,-0.02090574987232685,-0.076052725,0.020158553,223.29517,52.70490600000001,20.954653,SIT
558960700000.0,0.006561491638422012,0.12202748656272888,0.16749434173107147,1.614349603652954,-0.024293510243296623,-0.08155051,0.017715093,224.03574,52.255787,20.660788,SIT
643887140000.0,0.008222000673413277,0.14104683697223663,0.19039702415466309,1.858701229095459,-0.02789490297436714,-0.073303826,0.012217305,224.764,51.802727000000004,20.374697,SIT
731146160000.0,0.01009276695549488,0.1608836054801941,0.21281610429286957,2.109452724456787,-0.0313536636531353,-0.06658431,0.01740966,225.47601,51.34304,20.102516,SIT
820017900000.0,0.012169156223535538,0.18234199285507202,0.23549261689186096,2.364210605621338,-0.03463255614042282,-0.07452556,0.02107485,226.17542999999998,50.878853,19.843951999999998,SIT
909835500000.0,0.014453374780714512,0.20536531507968903,0.258180171251297,2.6210780143737793,-0.037646710872650146,-0.07299839999999999,0.009773844,226.86496,50.413933,19.593458,SIT
999990600000.0,0.016933085396885872,0.22948171198368073,0.27994632720947266,2.8793416023254395,-0.040117356926202774,-0.06505715,0.009162978,227.54117000000002,49.945107,19.350468,SIT
1089936500000.0,0.019600577652454376,0.254584401845932,0.30061963200569153,3.1374518871307373,-0.04231857880949974,-0.05955936,0.004886922,228.21677000000003,49.474779999999996,19.120801999999998,SIT
1179189200000.0,0.022450925782322884,0.2804575264453888,0.3204588294029236,3.3940682411193848,-0.044180978089571,-0.052534412999999995,0.004886922,228.552825000499,49.235204562456296,19.0097956519221,SIT
1267326900000.0,0.02547406032681465,0.30688905715942383,0.3396974503993988,3.6480071544647217,-0.045739807188510895,-0.047036625,-0.0015271631,228.88734,48.996727,18.899298,SIT
1353987700000.0,0.02866026945412159,0.3343230187892914,0.3586292266845703,3.8988137245178223,-0.046906478703022,-0.04886922,-0.006414085,229.54771000000002,48.51692,18.689766,SIT
1438866300000.0,0.03199681639671326,0.36394640803337097,0.3780895173549652,4.146986484527588,-0.04800902679562569,-0.031154128,-0.009773844,230.2089,48.03363,18.488054,SIT
1521711200000.0,0.03547682613134384,0.39527428150177,0.3981371819972992,4.391502857208252,-0.04873016104102135,-0.025961772999999997,-0.009773844,230.86112999999997,47.5437,18.301203,SIT
1602318900000.0,0.03909260034561157,0.42775434255599976,0.4188423752784729,4.63141393661499,-0.04911196976900101,-0.029321532999999997,-0.017104227,231.51036000000002,47.05272,18.123962,SIT
1680530500000.0,0.04282832518219948,0.46160250902175903,0.44088447093963623,4.868324279785156,-0.048973504453897476,-0.0290161,-0.018936822,232.14522999999997,46.539196000000004,17.982672,SIT
1756226500000.0,0.046681080013513565,0.49777448177337646,0.4663614332675934,5.107851982116699,-0.04932725802063942,-0.03573562,-0.014355333500000001,232.77274,46.03115,17.849012,SIT
1829322500000.0,0.050637777894735336,0.5356205701828003,0.4943999946117401,5.334957599639893,-0.05022122338414192,-0.03268129,-0.01038471,233.39844,45.505264000000004,17.736652,SIT
1899764600000.0,0.05469384789466858,0.5743838548660278,0.5239409804344177,5.528383255004883,-0.05146514251828194,-0.04428773,-0.013439035,234.01538,44.983753,17.632877,SIT
1967525700000.0,0.05883588641881943,0.612484335899353,0.5544131398200989,5.706044673919678,-0.05221579223871231,-0.054061572999999995,-0.007330383,234.63794,44.422554,17.560562,SIT
2032601100000.0,0.06306149065494537,0.6474620699882507,0.5850595831871033,5.896244049072266,-0.05299670621752739,-0.06169739,0.0021380284,235.25415,43.870715999999994,17.49154,SIT
2095005400000.0,0.06736250221729279,0.6797584891319275,0.6162334084510803,6.084383964538574,-0.054048217833042145,-0.06597344599999999,0.015271631,235.8111,43.355606,17.45767,SIT
2154769400000.0,0.07173331826925278,0.7102091312408447,0.6487233638763428,6.241324424743652,-0.05444532632827759,-0.0711658,0.023518313,236.3639,42.839245,17.424132999999998,SIT
2211937000000.0,0.07616568356752396,0.7385275363922119,0.6813724040985107,6.380338668823242,-0.05534713342785835,-0.08216137400000001,0.03940081,236.95247999999998,42.305842999999996,17.379015,SIT
2266562600000.0,0.08065707981586456,0.7640596032142639,0.7119151949882507,6.52756929397583,-0.055143117904663086,-0.089491755,0.04062254,237.5393,41.76487,17.336123,SIT
2318709600000.0,0.08519766479730606,0.7870160937309265,0.7405502796173096,6.6812520027160645,-0.05493282899260521,-0.08735373,0.050701816,238.07442999999998,41.271392999999996,17.311125,SIT
2368447700000.0,0.08978144079446793,0.8084923028945923,0.7687018513679504,6.829093933105469,-0.05479468032717705,-0.086132,0.0571159,238.60768,40.775257,17.287668,SIT
2415851700000.0,0.09440477937459946,0.8285380601882935,0.7963772416114807,6.971264839172363,-0.05402037873864174,-0.07452556,0.057726767000000005,239.1727,40.259357,17.242006,SIT
2461000000000.0,0.09906789660453796,0.8479207158088684,0.8233374953269958,7.095142841339111,-0.05381793901324272,-0.070249505,0.06261369,239.73206000000002,39.755226,17.196173,SIT
2503973300000.0,0.10376164317131042,0.8668800592422485,0.8495092988014221,7.1977362632751465,-0.05311993882060051,-0.06963864,0.06536258,240.29127999999997,39.246624,17.149708,SIT
2544853600000.0,0.10848866403102875,0.8856898546218872,0.8745592832565308,7.288120746612549,-0.05305789038538933,-0.06352998,0.06352998,240.85372999999998,38.74581,17.100964,SIT
2583723500000.0,0.11324454098939896,0.9043945074081421,0.8984591960906982,7.368483543395996,-0.05295123532414436,-0.053145275,0.06780604,241.41286000000002,38.244606,17.050293,SIT
2620665400000.0,0.11802622675895691,0.922992467880249,0.9212555289268494,7.439274787902832,-0.053200241178274155,-0.047036625,0.06505715,241.94574,37.772022,17.01313,SIT
2655760700000.0,0.12282964587211609,0.9414789080619812,0.9429940581321716,7.50096321105957,-0.05389969423413277,-0.044898596,0.06261369,242.47751,37.303670000000004,16.973919,SIT
2689089700000.0,0.1276528686285019,0.9598555564880371,0.9637205004692078,7.553966045379639,-0.05483584478497505,-0.04886922,0.064446285,243.01268,36.846706,16.940832,SIT
2720731200000.0,0.13249361515045166,0.9781229496002197,0.9834794998168945,7.598699569702148,-0.05646166950464249,-0.04276056599999999,0.063224554,243.55012999999997,36.39717,16.906136,SIT
2750762000000.0,0.13739393651485443,0.9946599006652832,1.0023653507232666,7.643661975860596,-0.058454107493162155,-0.043982297000000004,0.062002823,244.08151,35.94963,16.875515,SIT
2779256500000.0,0.14226409792900085,1.0094226598739624,1.020388126373291,7.6899333000183105,-0.06077858433127403,-0.043066,0.06750060599999999,244.61174,35.509674,16.842335000000002,SIT
2806287200000.0,0.1471482217311859,1.0223150253295898,1.0376083850860596,7.7381510734558105,-0.06332160532474518,-0.05009095,0.06963864,245.10895,35.092525,16.83064,SIT
2831923800000.0,0.15204361081123352,1.0334347486495972,1.0540634393692017,7.788188934326172,-0.06600737571716309,-0.040927973,0.064751714,245.60913,34.679435999999995,16.814547,SIT
2856234000000.0,0.1569489985704422,1.042225956916809,1.0695573091506958,7.837433338165283,-0.06905417144298553,-0.042455133,0.076052725,246.1011,34.273434,16.79869,SIT
2879282200000.0,0.16186454892158508,1.0484551191329956,1.084012746810913,7.884588718414307,-0.07268547266721725,-0.04886922,0.07452556,246.59743999999998,33.870686,16.784225,SIT
2901131000000.0,0.16678877174854279,1.0520223379135132,1.0968414545059204,7.928901195526123,-0.07661249488592148,-0.06536258,0.079107046,247.10492999999997,33.465828,16.756771,SIT
2921839500000.0,0.17172105610370636,1.0528141260147095,1.1074470281600952,7.969606399536133,-0.08014052361249924,-0.06352998,0.08460484,247.61327999999997,33.064075,16.726696,SIT
2941465400000.0,0.17666731774806976,1.0517940521240234,1.1163537502288818,8.010438919067383,-0.08377530425786972,-0.06963864,0.0983493,248.11678999999998,32.677414,16.692411,SIT
2960063000000.0,0.18161393702030182,1.0498604774475098,1.1240684986114502,8.054207801818848,-0.08798063546419144,-0.07391469,0.09865474,248.62142999999998,32.294052,16.659004,SIT
2977684500000.0,0.18656428158283234,1.0467525720596313,1.129978895187378,8.100544929504395,-0.09118755161762238,-0.06872234,0.11056661,249.12177999999997,31.93085,16.632078,SIT
2994379700000.0,0.19151978194713593,1.0421909093856812,1.1334223747253418,8.149026870727539,-0.09466349333524704,-0.07269296,0.1160644,249.6203,31.57905,16.6098,SIT
3010196100000.0,0.19647960364818573,1.0370521545410156,1.1352838277816772,8.200669288635254,-0.09748615324497223,-0.06841691,0.113926366,250.12929,31.220629,16.57783,SIT
3025179000000.0,0.20144355297088623,1.0319377183914185,1.1361842155456543,8.256123542785645,-0.1005168929696083,-0.053145275,0.1282817,250.63231000000002,30.872889,16.541603,SIT
3039371500000.0,0.20645356178283691,1.0268073081970215,1.1360361576080322,8.316228866577148,-0.10348504036664963,-0.049480084,0.11575896,251.15062999999998,30.53128,16.509634,SIT
3052814200000.0,0.2114218920469284,1.0217409133911133,1.1351714134216309,8.378643989562988,-0.10637753456830978,-0.042455133,0.11636983,251.66302000000002,30.195894,16.470323999999998,SIT
3065546500000.0,0.2163928896188736,1.0162352323532104,1.133538007736206,8.441094398498535,-0.10932816565036774,-0.040011674,0.11575896,252.17676,29.862246000000003,16.434535999999998,SIT
3077605200000.0,0.22136791050434113,1.0097509622573853,1.131229043006897,8.49973201751709,-0.11218760907649994,-0.03390302,0.12217305,252.68811000000002,29.530866999999997,16.396145,SIT
3089025500000.0,0.2263442724943161,1.0031274557113647,1.1287306547164917,8.555424690246582,-0.11455445736646652,-0.022907447,0.118202426,253.21347000000003,29.185990999999998,16.354847,SIT
3099840700000.0,0.23132434487342834,0.99736088514328,1.126617670059204,8.609177589416504,-0.11720208823680878,-0.0061086523,0.1255328,253.73346,28.849636,16.309313,SIT
3110083000000.0,0.23630265891551971,0.992241382598877,1.1241717338562012,8.660269737243652,-0.1201806291937828,-0.011301007,0.12461651,254.25173999999998,28.51861,16.26168,SIT
3119782000000.0,0.24128560721874237,0.9875160455703735,1.1203844547271729,8.707671165466309,-0.12319619953632355,-0.009773844,0.12675454,254.76793999999998,28.191587,16.208588,SIT
3128966500000.0,0.24626678228378296,0.9831613898277283,1.1153600215911865,8.75159740447998,-0.12636058032512665,-0.004886922,0.1160644,255.28522,27.864994,16.160320000000002,SIT
3137663400000.0,0.2512533366680145,0.9791610836982727,1.109125018119812,8.792206764221191,-0.12979592382907867,-0.0125227375,0.11911872,255.79384,27.543978000000003,16.114079,SIT
3145898700000.0,0.2562388479709625,0.9757686853408813,1.1016449928283691,8.829462051391602,-0.13293495774269104,-0.012217305,0.11942416,256.3048,27.222922999999998,16.067829999999997,SIT
3153696700000.0,0.26122719049453735,0.974000096321106,1.0924627780914307,8.862637519836426,-0.1358909159898758,-0.01740966,0.11026118,256.81265,26.906390000000002,16.026907,SIT
3161080500000.0,0.26621344685554504,0.9737436175346375,1.081705927848816,8.891986846923828,-0.13855963945388794,-0.016798794,0.11301007,257.30343999999997,26.603040000000004,15.985565,SIT
3168071800000.0,0.27120548486709595,0.9749612212181091,1.069396734237671,8.917652130126953,-0.14007800817489624,-0.02687807,0.10659598599999999,257.7941,26.295516999999997,15.951629,SIT
3174691800000.0,0.2762393355369568,0.977210521697998,1.0543378591537476,8.938000679016113,-0.14172710478305817,-0.03023783,0.099265605,258.28302,25.996185,15.916422,SIT
3180959600000.0,0.28123044967651367,0.9795383214950562,1.0365134477615356,8.952710151672363,-0.14353248476982117,-0.043066,0.09315695,258.76804,25.693645,15.887275,SIT
3186894300000.0,0.28622180223464966,0.9820117950439453,1.0157901048660278,8.961508750915527,-0.14447718858718872,-0.04734206,0.093767814,259.2385,25.40645,15.863947,SIT
3192513600000.0,0.29121389985084534,0.98485267162323,0.994672417640686,8.96634578704834,-0.1443628966808319,-0.050701816,0.09040806,259.70758,25.120134,15.844795000000001,SIT
3197834000000.0,0.2962058484554291,0.9880357384681702,0.9732376337051392,8.967354774475098,-0.14402690529823303,-0.05131268,0.0888809,260.1638,24.863672,15.828464000000002,SIT
3202871500000.0,0.30119961500167847,0.9915018677711487,0.9520388245582581,8.963785171508789,-0.14300914108753204,-0.046731193,0.090713486,260.6178,24.600626000000002,15.811353,SIT
3207641000000.0,0.3061923682689667,0.9952313899993896,0.9310727715492249,8.955926895141602,-0.14188283681869507,-0.047647487,0.07971791,261.06557999999995,24.348856,15.799703,SIT
3212156900000.0,0.31118878722190857,0.9990571737289429,0.9117029905319214,8.950244903564453,-0.14039340615272522,-0.05100725,0.08552113,261.50626,24.094662,15.784759,SIT
3216432700000.0,0.3161830008029938,1.0029339790344238,0.8941286206245422,8.947921752929688,-0.13816964626312256,-0.04337143,0.08827003,261.94955,23.837385,15.768364000000002,SIT
3220481000000.0,0.3211795687675476,1.0068501234054565,0.8790446519851685,8.945608139038086,-0.1358039230108261,-0.04153884,0.08246681,262.37994,23.589785,15.752578,SIT
3224314000000.0,0.3261760175228119,1.0107989311218262,0.8664524555206299,8.942694664001465,-0.1333363652229309,-0.053145275,0.08552113,262.80414,23.340134,15.736417000000001,SIT
3227943200000.0,0.3311723470687866,1.0156959295272827,0.855349063873291,8.937190055847168,-0.13059337437152863,-0.044898596,0.08399397,263.23645,23.081782999999998,15.714623999999999,SIT
3231379000000.0,0.33616673946380615,1.0218172073364258,0.845332145690918,8.928513526916504,-0.1282568722963333,-0.03726278,0.07849618,263.6651,22.827044,15.695397,SIT
3234632300000.0,0.3411630094051361,1.02911376953125,0.8361794948577881,8.919002532958984,-0.12554030120372772,-0.04428773,0.079107046,264.08887000000004,22.560493,15.6774,SIT
3237712500000.0,0.3461631238460541,1.0375324487686157,0.8277661800384521,8.909746170043945,-0.12298472225666046,-0.054367005999999996,0.07238753,264.51428,22.298607,15.658954999999999,SIT
3240628800000.0,0.3511601686477661,1.0465197563171387,0.820051372051239,8.901378631591797,-0.12035369873046875,-0.054061572999999995,0.0711658,264.9194,22.028316,15.638608999999999,SIT
3243390300000.0,0.35615643858909607,1.0557934045791626,0.8130025267601013,8.894222259521484,-0.1174234002828598,-0.047036625,0.07086037,265.32355,21.758537,15.6189375,SIT
3246005000000.0,0.36115726828575134,1.0653533935546875,0.8065893650054932,8.888227462768555,-0.11393308639526367,-0.054061572999999995,0.0580322,265.7247,21.483917,15.606532000000001,SIT
3248480300000.0,0.3661549687385559,1.0751630067825317,0.8007708787918091,8.88331127166748,-0.11064500361680984,-0.053450707,0.0580322,266.1219,21.214197,15.587944,SIT
3250824200000.0,0.3711545467376709,1.085670828819275,0.7944054007530212,8.882563591003418,-0.10712520778179169,-0.057421334000000004,0.048563786,266.52393,20.940468,15.577072,SIT
3253043500000.0,0.37615662813186646,1.09708833694458,0.7869095206260681,8.887489318847656,-0.10348369926214218,-0.0693332,0.043066,266.9217,20.669947,15.566648999999998,SIT
3255144800000.0,0.3811592757701874,1.1091935634613037,0.7803992629051208,8.894332885742188,-0.09946654736995697,-0.076358154,0.04062254,267.32302999999996,20.394325,15.561962,SIT
3257134500000.0,0.38615676760673523,1.121795654296875,0.7763926386833191,8.900304794311523,-0.09533791244029999,-0.06841691,0.03359759,267.725,20.120086999999998,15.555984500000001,SIT
3259018200000.0,0.3911532461643219,1.1348850727081299,0.7747883796691895,8.90544319152832,-0.09090841561555862,-0.07788532,0.023823743999999997,268.13443,19.847292000000003,15.565089000000002,SIT
3260802000000.0,0.396152138710022,1.148450493812561,0.7754862308502197,8.909786224365234,-0.08666611462831497,-0.08399397,0.026267206,268.54068,19.578283,15.568805,SIT
3262491000000.0,0.40114977955818176,1.1626445055007935,0.7782084345817566,8.914426803588867,-0.08250337839126587,-0.07544186,0.027488936000000002,268.94763,19.30784,15.570286,SIT
3264090000000.0,0.4061471223831177,1.1775693893432617,0.7827686071395874,8.920059204101562,-0.07789511233568192,-0.073303826,0.022602014,269.35138,19.036821,15.573533,SIT
3265604000000.0,0.41114747524261475,1.193076729774475,0.7886937856674194,8.928028106689453,-0.07299527525901794,-0.07819075,0.019547688,269.75006,18.747456,15.577473000000001,SIT
3267038000000.0,0.4161440432071686,1.2089959383010864,0.7955414652824402,8.939287185668945,-0.06860069185495377,-0.0720821,0.020158553,270.14758,18.462044,15.576049,SIT
3268395700000.0,0.4211446940898895,1.225074052810669,0.8032850623130798,8.953348159790039,-0.06422868371009827,-0.07696902,0.01282817,270.54645,18.163567999999998,15.576401,SIT
3269681200000.0,0.42615389823913574,1.24105703830719,0.811885416507721,8.969706535339355,-0.060073379427194595,-0.06780604,0.010690141499999998,270.94257000000005,17.871658,15.568912,SIT
3270898600000.0,0.431151807308197,1.2566769123077393,0.8204765915870667,8.988840103149414,-0.05563491955399513,-0.06047566,0.014966198,271.33923,17.5697,15.561554000000001,SIT
3272051300000.0,0.4361499547958374,1.2716948986053467,0.8281489014625549,9.011795043945312,-0.05157947912812233,-0.06047566,0.0061086523,271.73712,17.273993,15.553331,SIT
3273142800000.0,0.4411472976207733,1.2864969968795776,0.8352251052856445,9.038293838500977,-0.0475773811340332,-0.06169739,0.0027488936,272.13132,16.968501999999997,15.544559,SIT
3274176500000.0,0.4461468756198883,1.3024100065231323,0.8427383899688721,9.067994117736816,-0.043658338487148285,-0.06078109,0.0033597588,272.52374,16.668074,15.533957000000001,SIT
3275155300000.0,0.4511425793170929,1.3189010620117188,0.8506309986114502,9.09872055053711,-0.039720263332128525,-0.05375614,-0.0015271631,272.92163,16.368128,15.519155,SIT
3276082200000.0,0.4561401903629303,1.3350200653076172,0.8588632345199585,9.126289367675781,-0.035764168947935104,-0.05375614,-0.008857545999999999,273.3158,16.071964,15.504632,SIT
3276960200000.0,0.4611394703388214,1.3505141735076904,0.8674366474151611,9.151257514953613,-0.03258860111236572,-0.049785517,-0.010995574,273.7194,15.779647,15.494676,SIT
3277791400000.0,0.4661385118961334,1.3647716045379639,0.8763749599456787,9.174690246582031,-0.029110223054885864,-0.035430185,-0.0070249503,274.12015,15.4853945,15.480123,SIT
3278578600000.0,0.4711577594280243,1.3778269290924072,0.8857218027114868,9.19665241241455,-0.025963706895709038,-0.04184427,-0.01863139,274.52173,15.199005,15.475057000000001,SIT
3279324200000.0,0.47615569829940796,1.391723394393921,0.8960162401199341,9.216970443725586,-0.02329413965344429,-0.046120327,-0.015577064,274.91537,14.917001,15.462238000000001,SIT
3280030400000.0,0.4811713397502899,1.40688955783844,0.9075172543525696,9.23550033569336,-0.02058778889477253,-0.03970624,-0.01038471,275.30804,14.636863,15.447211,SIT
3280699000000.0,0.48616674542427063,1.4216914176940918,0.9195150136947632,9.249935150146484,-0.01840003952383995,-0.042455133,-0.016187929,275.69876,14.360643,15.432904999999998,SIT
3281332500000.0,0.49116218090057373,1.4361827373504639,0.9320693016052246,9.260251998901367,-0.016280047595500946,-0.04795292,-0.013133603,276.07974,14.078978,15.417906,SIT
3281932300000.0,0.49616074562072754,1.4508486986160278,0.9456709027290344,9.268598556518555,-0.01461485680192709,-0.03481932,-0.02076942,276.46274,13.80442,15.398109,SIT
3282500600000.0,0.5011549592018127,1.4657422304153442,0.9603136777877808,9.275490760803223,-0.012273375876247883,-0.03940081,-0.0125227375,276.8346,13.529743,15.381839000000001,SIT
3283038800000.0,0.5061517357826233,1.4798096418380737,0.9748575687408447,9.273188591003418,-0.01072404533624649,-0.037873644,-0.010690141499999998,277.20482999999996,13.263797,15.362231,SIT
3283548600000.0,0.5111513137817383,1.4928929805755615,0.9890952110290527,9.26069450378418,-0.00917589571326971,-0.048258353,-0.007941248,277.5676,12.9950075,15.345226,SIT
3284031500000.0,0.5161497592926025,1.5048718452453613,1.0022400617599487,9.244074821472168,-0.008345064707100391,-0.03970624,-0.008857545999999999,277.9281,12.729775,15.323217000000001,SIT
3284489000000.0,0.521148681640625,1.5157108306884766,1.0139321088790894,9.226334571838379,-0.007412015460431576,-0.030848695,-0.0033597588,278.28165,12.465053,15.3020935,SIT
3284922300000.0,0.5261558294296265,1.5252776145935059,1.0247982740402222,9.206510543823242,-0.006561244837939739,-0.030543262,-0.0070249503,278.6244,12.212546000000001,15.284792000000001,SIT
3285332800000.0,0.5311757922172546,1.5335204601287842,1.0352210998535156,9.18407917022705,-0.005772091448307037,-0.03176499,-0.0030543262,278.96063,11.963869,15.263316,SIT
3285721500000.0,0.53617262840271,1.5406125783920288,1.0452070236206055,9.159642219543457,-0.00507382582873106,-0.02321288,-0.008552114,279.29245,11.72053,15.238885999999999,SIT
3286089900000.0,0.5411696434020996,1.5465511083602905,1.0547900199890137,9.133016586303711,-0.0044941590167582035,-0.01740966,-0.0033597588,279.6167,11.48201,15.213489000000001,SIT
3286439000000.0,0.5461673736572266,1.5514097213745117,1.0633994340896606,9.108842849731445,-0.0036523921880871058,-0.01160644,-0.0027488936,279.94144,11.24442,15.185208,SIT
3286769900000.0,0.5511647462844849,1.5552560091018677,1.0707966089248657,9.089221954345703,-0.0035716877318918705,-0.01282817,-0.005192355,280.26245,11.015981,15.156148000000002,SIT
3287083000000.0,0.5561649203300476,1.5577830076217651,1.077864646911621,9.073846817016602,-0.0035766707733273506,-0.008857545999999999,-0.0036651915999999997,280.56985,10.787987,15.114898,SIT
3287380100000.0,0.5611638426780701,1.5588855743408203,1.0850719213485718,9.062386512756348,-0.003939489834010601,-0.009773844,-0.0021380284,280.87485,10.567953,15.074856,SIT
3287661400000.0,0.5661616325378418,1.5580796003341675,1.0917452573776245,9.051431655883789,-0.004266695585101843,-0.0009162978999999999,-0.010995574,281.1838,10.350862,15.027223999999999,SIT
3287928000000.0,0.5711612105369568,1.5551745891571045,1.0975868701934814,9.03939437866211,-0.0046415734104812145,-0.01038471,-0.004276057,281.4839,10.140236,14.983642999999999,SIT
3288180700000.0,0.5761614441871643,1.5511231422424316,1.1021904945373535,9.027764320373535,-0.005094137042760849,0.0015271631,0.004581489,281.79037,9.929469000000001,14.926530999999999,SIT
3288420300000.0,0.5811639428138733,1.5467474460601807,1.1051982641220093,9.017834663391113,-0.005848128814250231,-0.0018325957999999999,0.0018325957999999999,282.09402,9.722762,14.876357999999998,SIT
3288647300000.0,0.5861613750457764,1.5424803495407104,1.1070120334625244,9.0098237991333,-0.0069200401194393635,-0.007330383,-0.0021380284,282.40204,9.525718,14.830673,SIT
3288862600000.0,0.5911591649055481,1.538565993309021,1.1078517436981201,9.00386905670166,-0.007560447324067354,0.008246681,0.0012217305,282.70662999999996,9.329312,14.779307000000001,SIT
3289066500000.0,0.5961571931838989,1.5349855422973633,1.1077693700790405,8.999860763549805,-0.008378331549465656,0.0030543262,0.00030543262000000003,283.01086000000004,9.146044999999999,14.732342000000001,SIT
3289260000000.0,0.6011733412742615,1.5317296981811523,1.106755256652832,8.997804641723633,-0.009347956627607346,0.004581489,-0.0015271631,283.31256,8.963163,14.678723000000002,SIT
3289443200000.0,0.6061696410179138,1.5281864404678345,1.1048709154129028,8.997912406921387,-0.010461235418915749,0.011301007,0.0076358155,283.6083,8.784302,14.624395000000002,SIT
3289617000000.0,0.6111704707145691,1.5238521099090576,1.1019846200942993,9.000709533691406,-0.011515184305608273,0.016187929,0.003970624,283.9054,8.606494999999999,14.5706,SIT
3289782000000.0,0.6161662936210632,1.5188026428222656,1.0981876850128174,9.005959510803223,-0.012789680622518063,0.027488936000000002,0.010690141499999998,284.19556,8.440156,14.515301999999998,SIT
3289938100000.0,0.6211627125740051,1.513056993484497,1.093507170677185,9.01358413696289,-0.013914869166910648,0.024129177,0.0036651915999999997,284.48746,8.272672,14.463410999999999,SIT
3290086200000.0,0.6261612176895142,1.506461262702942,1.0875970125198364,9.023625373840332,-0.015452136285603046,0.03390302,0.016187929,284.76977999999997,8.113327,14.403498999999998,SIT
3290226800000.0,0.6311588883399963,1.498642921447754,1.0796406269073486,9.036279678344727,-0.01734696701169014,0.033292156,0.009468411,285.0562,7.953407,14.348564000000001,SIT
3290360200000.0,0.6361532807350159,1.489471197128296,1.070252537727356,9.051715850830078,-0.019108261913061142,0.0290161,0.008246681,285.33453,7.8031625999999985,14.280149,SIT
3290486800000.0,0.6411513686180115,1.4785715341567993,1.0603796243667603,9.070516586303711,-0.021215181797742844,0.0290161,0.019242255,285.60828,7.6595592,14.211060999999999,SIT
3290606900000.0,0.6461477279663086,1.4656020402908325,1.0501842498779297,9.092211723327637,-0.022900547832250595,0.029932396,0.023518313,285.88403,7.5223985,14.139729999999998,SIT
3290721000000.0,0.6511450409889221,1.4492378234863281,1.0400214195251465,9.116070747375488,-0.02425193600356579,0.030543262,0.034208454,286.1515,7.390148,14.068553,SIT
3290829000000.0,0.6561424732208252,1.4306339025497437,1.0297036170959473,9.14151382446289,-0.025905683636665344,0.033292156,0.03145956,286.42963,7.265482,13.994369500000001,SIT
3290931400000.0,0.6611402630805969,1.41277015209198,1.0186794996261597,9.167108535766602,-0.027031809091567993,0.03023783,0.03634648,286.69872999999995,7.13735,13.921853,SIT
3291029000000.0,0.6661367416381836,1.3956087827682495,1.006994366645813,9.19283676147461,-0.02840718999505043,0.026572637000000003,0.048563786,286.97345,7.019342999999999,13.839212,SIT
3291121500000.0,0.671141505241394,1.3791033029556274,0.994638979434967,9.218746185302734,-0.029497668147087097,0.022296581,0.049785517,287.246,6.896289299999999,13.758991,SIT
3291209300000.0,0.6761389374732971,1.3634165525436401,0.9817687273025513,9.244485855102539,-0.030123097822070122,0.019547688,0.048258353,287.50797,6.770650999999999,13.684748999999998,SIT
3291292600000.0,0.6811367273330688,1.3493098020553589,0.9685922265052795,9.268978118896484,-0.02978738769888878,0.023518313,0.044898596,287.76675,6.641824000000001,13.610686999999999,SIT
3291371800000.0,0.6861354112625122,1.336700439453125,0.9551239013671875,9.292288780212402,-0.029616065323352814,0.023823743999999997,0.05467244,288.0141,6.5251184,13.53664,SIT
3291447000000.0,0.6911342144012451,1.3255066871643066,0.9413818120956421,9.314481735229492,-0.03031657263636589,0.021685716,0.051923547,288.26294,6.4070263,13.463622,SIT
3291518600000.0,0.6961345076560974,1.3155674934387207,0.9274157285690308,9.335573196411133,-0.03070303238928318,0.025045475,0.05161811400000001,288.49768,6.282232,13.385796,SIT
3291586500000.0,0.7011339664459229,1.3057074546813965,0.9137433767318726,9.355090141296387,-0.030417803674936295,0.028099801,0.050396382999999996,288.73044,6.160603500000001,13.30989,SIT
3291651200000.0,0.7061309814453125,1.2959251403808594,0.9003520011901855,9.373119354248047,-0.030164051800966263,0.028710667000000002,0.047647487,288.94934,6.044803,13.240951,SIT
3291712600000.0,0.7111275792121887,1.2869832515716553,0.8873817324638367,9.388875961303711,-0.0295657217502594,0.02687807,0.039095376,289.16763,5.924253500000001,13.172981,SIT
3291771000000.0,0.7161201238632202,1.2790186405181885,0.8748523592948914,9.402290344238281,-0.02875511720776558,0.02321288,0.037873644,289.3819,5.805765,13.106113,SIT
3291826600000.0,0.7211153507232666,1.2713849544525146,0.863140344619751,9.410948753356934,-0.02806909941136837,0.018936822,0.047647487,289.59167,5.690126,13.039992,SIT
3291879600000.0,0.7261099219322205,1.2638977766036987,0.8523128032684326,9.414460182189941,-0.027354532852768898,0.021991148999999998,0.03756821,289.80515,5.572189,12.974214,SIT
3291930000000.0,0.7311054468154907,1.2554776668548584,0.8425357341766357,9.416558265686035,-0.02622228115797043,0.016798794,0.03573562,290.0064,5.4528932999999995,12.91957,SIT
3291978000000.0,0.7360994815826416,1.245970368385315,0.8337917327880859,9.4180326461792,-0.0249875970184803,0.025350908,0.030543262,290.20975,5.335141,12.860957,SIT
3292023500000.0,0.7410973310470581,1.237618088722229,0.8260367512702942,9.418461799621582,-0.02394893206655979,0.016187929,0.032986722999999996,290.4075,5.2190547,12.811013,SIT
3292067000000.0,0.7460927963256836,1.2307344675064087,0.8192068338394165,9.417844772338867,-0.0225912407040596,0.022602014,0.017715093,290.61032,5.099214,12.755127,SIT
3292108400000.0,0.751089870929718,1.2257269620895386,0.8139877319335938,9.415947914123535,-0.0214524008333683,0.010079277,0.018936822,290.79498,4.9782763,12.698773,SIT
3292148000000.0,0.7560872435569763,1.222556710243225,0.8103927969932556,9.412806510925293,-0.019755713641643524,0.018325957,0.013133603,290.98492000000005,4.8514037000000005,12.635853,SIT
3292185800000.0,0.7610888481140137,1.2209968566894531,0.8085053563117981,9.408479690551758,-0.01884937286376953,0.028710667000000002,0.022907447,291.16327,4.7317276,12.577428,SIT
3292221700000.0,0.7660907506942749,1.220845341682434,0.8083087205886841,9.403059005737305,-0.0175518449395895,0.026267206,0.014966198,291.3465,4.6029725,12.521386,SIT
3292256000000.0,0.7710904479026794,1.2212778329849243,0.8092804551124573,9.396017074584961,-0.016160693019628525,0.02107485,0.014355333500000001,291.5284,4.4822903,12.463242999999999,SIT
3292288800000.0,0.7760977149009705,1.2219383716583252,0.8112048506736755,9.387090682983398,-0.014892511069774628,0.023518313,0.010079277,291.7118,4.361191000000001,12.404428999999999,SIT
3292320000000.0,0.7811015248298645,1.2225538492202759,0.8137038946151733,9.378011703491211,-0.013659359887242317,0.027488936000000002,0.0076358155,291.89117000000005,4.233237,12.352089999999999,SIT
3292349900000.0,0.7861009240150452,1.2229713201522827,0.8165655732154846,9.369747161865234,-0.01197105087339878,0.016493361,0.003970624,292.06995,4.1043425000000004,12.303752000000001,SIT
3292378400000.0,0.7911000847816467,1.2231987714767456,0.8197778463363647,9.362257957458496,-0.010681986808776855,0.025045475,0.008552114,292.2469,3.9791589,12.250273,SIT
3292405700000.0,0.7961006164550781,1.2232452630996704,0.8233253359794617,9.35550594329834,-0.009608116000890732,0.018020526000000002,0.009162978,292.42357999999996,3.8516917,12.204675,SIT
3292431600000.0,0.8011002540588379,1.223122000694275,0.8271857500076294,9.349448204040527,-0.00842870119959116,0.022602014,0.013133603,292.59396,3.7219675000000003,12.159796,SIT
3292456600000.0,0.806098997592926,1.2228379249572754,0.8313424587249756,9.344048500061035,-0.007556301075965166,0.01740966,0.006414085,292.76514,3.5963616000000003,12.119876,SIT
3292480400000.0,0.8111023902893066,1.2223716974258423,0.8356388807296753,9.339561462402344,-0.006225795950740576,0.007941248,0.009773844,292.93045,3.468633,12.079641,SIT
3292503200000.0,0.816103458404541,1.2217140197753906,0.8399226665496826,9.33617877960205,-0.005438240244984627,0.009468411,0.0067195175,293.0979,3.3482830000000003,12.037971,SIT
3292525200000.0,0.8211091160774231,1.220869541168213,0.8442000150680542,9.333864212036133,-0.004708933178335428,0.009468411,0.010079277,293.25946,3.2192767000000004,11.991042,SIT
3292546200000.0,0.8261123299598694,1.2198537588119507,0.8484656810760498,9.332537651062012,-0.0038719966541975737,-0.0015271631,-0.0070249503,293.426,3.0923736,11.947428,SIT
3292566400000.0,0.8311121463775635,1.2186766862869263,0.8527194261550903,9.332143783569336,-0.002933166455477476,0.0030543262,-0.00030543262000000003,293.58313,2.9690216,11.899157,SIT
3292585800000.0,0.8361121416091919,1.2173227071762085,0.8571901917457581,9.333137512207031,-0.0017350994748994708,-0.00030543262000000003,0.0009162978999999999,293.7448,2.8445365000000002,11.856752,SIT
3292604400000.0,0.8411117792129517,1.2157976627349854,0.8619093298912048,9.335537910461426,-0.0006985449581407011,0.003970624,-0.0021380284,293.9042,2.7233996,11.810969,SIT
3292622200000.0,0.8461127877235413,1.213903784751892,0.867664098739624,9.33876895904541,0.00015254989557433873,0.005192355,-0.0027488936,294.06203999999997,2.6021426,11.760131,SIT
3292639300000.0,0.851109504699707,1.2116005420684814,0.8746430277824402,9.3425931930542,0.0010071195429190993,0.002443461,-0.0015271631,294.2185,2.4822073,11.709641,SIT
3292655800000.0,0.856147289276123,1.2091436386108398,0.8823856115341187,9.346781730651855,0.001295271678827703,0.006414085,-0.00580322,294.3755,2.3614702000000003,11.661474,SIT
3292671800000.0,0.8611457347869873,1.2066738605499268,0.8904344439506531,9.351106643676758,0.0023819347843527794,0.006414085,-0.009162978,294.5301,2.235522,11.615449,SIT
3292687000000.0,0.8661444187164307,1.204168438911438,0.8988909721374512,9.355618476867676,0.002694483380764723,0.014355333500000001,-0.006414085,294.68658,2.1168007999999996,11.563852,SIT
3292701700000.0,0.8711450099945068,1.2016280889511108,0.9077388048171997,9.360311508178711,0.002778769703581929,0.007330383,-0.004581489,294.84247,1.9929317,11.516910000000001,SIT
3292715800000.0,0.876146137714386,1.199055552482605,0.9169530868530273,9.36517333984375,0.002777177607640624,-0.0018325957999999999,-0.003970624,294.99542,1.8758861,11.464317999999999,SIT
3292729700000.0,0.881144106388092,1.1964548826217651,0.9265025854110718,9.37018871307373,0.0031826039776206017,-0.005497787,-0.00580322,295.1468,1.7591287,11.412702000000001,SIT
3292743000000.0,0.8861426711082458,1.1936076879501343,0.936479389667511,9.373261451721191,0.003289709100499749,-0.003970624,-0.003970624,295.2952,1.6483887,11.362627,SIT
3292756000000.0,0.8911423087120056,1.19041907787323,0.9469107389450073,9.373458862304688,0.003163223387673497,-0.0009162978999999999,-0.0027488936,295.4426,1.5368846999999999,11.313578,SIT
3292768200000.0,0.896141767501831,1.1877708435058594,0.9573239088058472,9.372415542602539,0.0029620917048305273,-0.008246681,-0.007941248,295.59595,1.4185940000000001,11.2642145,SIT
3292780300000.0,0.9011404514312744,1.1862136125564575,0.9674195647239685,9.371190071105957,0.0024461320135742426,-0.01282817,-0.012217305,295.74698,1.3047715,11.213676,SIT
3292792000000.0,0.9061405062675476,1.1858230829238892,0.9770061373710632,9.369848251342773,0.0020553332287818193,-0.009468411,-0.013439035,295.89902,1.1876816000000001,11.162942999999999,SIT
3292803400000.0,0.9111420512199402,1.186690330505371,0.9858568906784058,9.368465423583984,0.0018318573711439967,-0.012217305,-0.007330383,296.04834,1.0739731000000001,11.115594999999999,SIT
3292814400000.0,0.9161429405212402,1.1887388229370117,0.9940128326416016,9.367044448852539,0.0012947442010045052,-0.014355333500000001,-0.018936822,296.21185,0.967591,11.073160000000001,SIT
3292825000000.0,0.9211448431015015,1.19191312789917,1.0015095472335815,9.36558723449707,0.001046692836098373,-0.0076358155,-0.009468411,296.36554,0.86040604,11.0289545,SIT
3292835600000.0,0.9262002110481262,1.1962486505508423,1.0084561109542847,9.364060401916504,0.0004537591303233057,-0.017104227,-0.013133603,296.52148,0.75476795,10.99348,SIT
3292845600000.0,0.9311964511871338,1.200164556503296,1.01578688621521,9.3624267578125,0.00021797152294311672,-0.014966198,-0.014966198,296.6724,0.64638937,10.952786,SIT
3292855300000.0,0.9361889958381653,1.2036362886428833,1.0236687660217285,9.360644340515137,-0.000298242608550936,-0.007941248,-0.013439035,296.818,0.54802763,10.920622,SIT
3292864700000.0,0.9411844611167908,1.2074204683303833,1.0314736366271973,9.35954761505127,-0.0005590633954852819,-0.013744468000000001,-0.008552114,296.9613,0.44682008,10.891374,SIT
3292874000000.0,0.9461799263954163,1.2117505073547363,1.038987159729004,9.359381675720215,-0.0014408009592443705,0.00061086525,-0.0036651915999999997,297.10242,0.35326344,10.854284,SIT
3292883000000.0,0.9511772990226746,1.2166026830673218,1.0462257862091064,9.360102653503418,-0.0022592709865421057,0.002443461,0.002443461,297.23633,0.2521697,10.816891,SIT
3292892000000.0,0.9561764001846313,1.2219489812850952,1.05320405960083,9.361663818359375,-0.003262005280703306,0.0061086523,-0.0015271631,297.37023999999997,0.15695238,10.775171,SIT
3292900600000.0,0.9611750245094299,1.227427363395691,1.0600197315216064,9.363935470581055,-0.004292687866836786,0.00580322,-0.0012217305,297.4996,0.06292611,10.7343855,SIT
3292909000000.0,0.9661737084388733,1.2328660488128662,1.066724419593811,9.366843223571777,-0.005528880283236504,0.0076358155,0.0015271631,297.62787000000003,-0.02760592,10.692307000000001,SIT
3292917400000.0,0.9711772203445435,1.238738775253296,1.072687029838562,9.369391441345215,-0.00710612628608942,0.01038471,0.0015271631,297.687950597314,-0.0722086435979154,10.6692116715775,SIT
3292925500000.0,0.9761746525764465,1.2452378273010254,1.077627420425415,9.371099472045898,-0.008631871081888676,0.004886922,0.009162978,297.74567,-0.11505846,10.647024,SIT
3292933400000.0,0.9811707735061646,1.2522308826446533,1.082076907157898,9.371993064880371,-0.009962363168597221,0.007330383,0.0067195175,297.86417,-0.20304017,10.600364,SIT
3292941300000.0,0.9861683249473572,1.2595881223678589,1.086534857749939,9.372102737426758,-0.011189394630491734,0.0033597588,0.011911871999999999,297.97614,-0.28797865,10.557663,SIT
3292948900000.0,0.9911643266677856,1.2667616605758667,1.0904675722122192,9.371569633483887,-0.012953296303749084,0.0036651915999999997,0.006414085,298.0856,-0.36842507,10.518056,SIT
3292956500000.0,0.9961643815040588,1.2730326652526855,1.0931503772735596,9.37054443359375,-0.01455808524042368,0.0027488936,0.0030543262,298.19174,-0.4508108,10.480431,SIT
3292963800000.0,1.0011632442474365,1.279018759727478,1.095453143119812,9.369511604309082,-0.015361147001385689,0.01160644,0.01160644,298.29404,-0.53247976,10.442438000000001,SIT
3292971100000.0,1.0061626434326172,1.2854547500610352,1.0984020233154297,9.369046211242676,-0.0165120679885149,0.0036651915999999997,0.0070249503,298.39993,-0.60823804,10.409891,SIT
3292978200000.0,1.0111578702926636,1.2920701503753662,1.1013331413269043,9.368986129760742,-0.017259828746318817,0.005192355,0.0061086523,298.49987999999996,-0.6863318,10.372254,SIT
3292985300000.0,1.016157865524292,1.2985601425170898,1.1034265756607056,9.369155883789062,-0.017821243032813072,0.005192355,0.0067195175,298.59958,-0.76031744,10.337731,SIT
3292992000000.0,1.0211573839187622,1.304805874824524,1.104803204536438,9.369632720947266,-0.018710840493440628,0.013133603,0.00580322,298.70352,-0.83217835,10.302238000000001,SIT
3292999000000.0,1.026158094406128,1.310178279876709,1.105836272239685,9.370895385742188,-0.01976463384926319,0.01160644,0.009468411,298.8048,-0.90414184,10.269841,SIT
3293005500000.0,1.0311528444290161,1.3148894309997559,1.1067336797714233,9.372701644897461,-0.020078619942069054,0.008857545999999999,0.011301007,298.9041,-0.97524446,10.236952,SIT
3293012000000.0,1.0361531972885132,1.3194303512573242,1.1080684661865234,9.374492645263672,-0.020115435123443604,0.006414085,0.010995574,299.0018,-1.0419153,10.204824,SIT
3293018600000.0,1.0411505699157715,1.323807716369629,1.1098028421401978,9.376266479492188,-0.020329339429736137,0.010690141499999998,0.01160644,299.10056000000003,-1.1064966,10.170822,SIT
3293025100000.0,1.046147346496582,1.3280309438705444,1.1119194030761719,9.37802505493164,-0.020303960889577866,0.011911871999999999,0.011301007,299.19855,-1.1736441999999998,10.138739999999999,SIT
3293031400000.0,1.0511444807052612,1.3321083784103394,1.1143993139266968,9.379769325256348,-0.02111007831990719,0.0061086523,0.0125227375,299.29483,-1.2331616,10.107847,SIT
3293037700000.0,1.056142807006836,1.3360481262207031,1.1172248125076294,9.381500244140625,-0.021384915336966515,0.004276057,0.020158553,299.3882,-1.2995669,10.075899,SIT
3293044000000.0,1.0611438751220703,1.339858055114746,1.1203804016113281,9.383218765258789,-0.02156371995806694,0.0125227375,0.018936822,299.47902999999997,-1.362652,10.0453,SIT
3293050000000.0,1.0661414861679077,1.3430641889572144,1.123551845550537,9.384963035583496,-0.02207481861114502,0.018325957,0.021991148999999998,299.56543,-1.4244502,10.016263,SIT
3293056000000.0,1.0711396932601929,1.3455920219421387,1.1266810894012451,9.386740684509277,-0.02360043115913868,0.019547688,0.021685716,299.65216000000004,-1.482184,9.986467999999999,SIT
3293062000000.0,1.076141119003296,1.347472906112671,1.1297717094421387,9.388551712036133,-0.02440992183983326,0.010995574,0.01863139,299.73495,-1.5528555,9.955161,SIT
3293068100000.0,1.0811383724212646,1.3487550020217896,1.1328222751617432,9.39039134979248,-0.024769339710474014,0.009162978,0.021380282999999996,299.81522,-1.6155576999999999,9.922148,SIT
3293074200000.0,1.0861390829086304,1.3502676486968994,1.1355334520339966,9.392363548278809,-0.02533748559653759,0.01038471,0.02076942,299.901,-1.6740592,9.890171,SIT
3293080000000.0,1.09113609790802,1.3522043228149414,1.137847900390625,9.39448356628418,-0.025907907634973526,0.01038471,0.019547688,299.98523,-1.7346746,9.859486,SIT
3293085700000.0,1.0961380004882812,1.3540478944778442,1.139494776725769,9.395564079284668,-0.02620377019047737,0.013744468000000001,0.025961772999999997,300.06827000000004,-1.7954857,9.825122,SIT
3293091500000.0,1.1011334657669067,1.3556746244430542,1.140460729598999,9.395401000976562,-0.026516420766711235,0.008552114,0.021380282999999996,300.15393,-1.8543576000000002,9.793560000000001,SIT
3293097200000.0,1.1061339378356934,1.357090950012207,1.1407568454742432,9.394009590148926,-0.027170510962605476,0.009162978,0.026267206,300.2302,-1.9115806,9.7610445,SIT
3293103000000.0,1.111132264137268,1.3583111763000488,1.1404341459274292,9.391486167907715,-0.027724632993340492,0.0070249503,0.020463986,300.3101,-1.9706736,9.731078,SIT
3293108800000.0,1.1161335706710815,1.358791470527649,1.1396468877792358,9.389463424682617,-0.028167838230729103,0.017104227,0.024129177,300.3848,-2.0263880000000003,9.698014,SIT
3293114300000.0,1.121134877204895,1.358209252357483,1.1385127305984497,9.3889741897583,-0.028685087338089943,0.014049901000000002,0.020158553,300.4627,-2.0812857,9.669582,SIT
3293119800000.0,1.1261341571807861,1.356629490852356,1.137053370475769,9.389925003051758,-0.02897944301366806,0.014355333500000001,0.01282817,300.5373,-2.1332557,9.638982,SIT
3293125300000.0,1.131133794784546,1.3540966510772705,1.1352827548980713,9.392251014709473,-0.029258111491799355,0.013744468000000001,0.02076942,300.60782,-2.1824296000000003,9.610055000000001,SIT
3293130800000.0,1.1361331939697266,1.3511732816696167,1.1332173347473145,9.394258499145508,-0.029619593173265457,0.015271631,0.020158553,300.6916,-2.2304275000000002,9.587375999999999,SIT
3293136300000.0,1.1411319971084595,1.3481462001800537,1.1308727264404297,9.395120620727539,-0.03004319779574871,0.013133603,0.025961772999999997,300.7702,-2.2772183,9.566186,SIT
3293141800000.0,1.1461315155029297,1.345019817352295,1.1282620429992676,9.39489459991455,-0.030769772827625275,0.013439035,0.02321288,300.85175,-2.320352,9.538199,SIT
3293147300000.0,1.1511307954788208,1.3418002128601074,1.1254007816314697,9.393641471862793,-0.031213467940688133,0.0125227375,0.022907447,300.9299,-2.3652039,9.511550999999999,SIT
3293152800000.0,1.1561310291290283,1.338131070137024,1.1220359802246094,9.392541885375977,-0.03168234974145889,0.021685716,0.023518313,301.00726000000003,-2.4036313999999996,9.477784,SIT
3293158300000.0,1.1611347198486328,1.3338972330093384,1.1180901527404785,9.392007827758789,-0.03209368884563446,0.019242255,0.02443461,301.08377,-2.443434,9.448042,SIT
3293163800000.0,1.1661367416381836,1.3293113708496094,1.1135979890823364,9.391827583312988,-0.032629601657390594,0.01282817,0.02565634,301.15775,-2.4796069,9.417344,SIT
3293169000000.0,1.1711370944976807,1.3244632482528687,1.108585238456726,9.391910552978516,-0.03339739143848419,0.006414085,0.017715093,301.2332,-2.5154517000000003,9.38773,SIT
3293174300000.0,1.1761384010314941,1.319197177886963,1.1033453941345215,9.392327308654785,-0.034189373254776,0.011911871999999999,0.02321288,301.3026,-2.5486202000000002,9.355511,SIT
3293179500000.0,1.1811619997024536,1.3134034872055054,1.0979806184768677,9.393125534057617,-0.0348089300096035,0.014966198,0.014660766,301.3775,-2.5822937,9.325954,SIT
3293184800000.0,1.1861610412597656,1.3072381019592285,1.0925614833831787,9.394221305847168,-0.03537918999791145,0.014660766,0.018325957,301.4453,-2.6118952999999996,9.2955885,SIT
3293190000000.0,1.1911609172821045,1.3006534576416016,1.0870572328567505,9.39563274383545,-0.03601672500371933,0.011301007,0.018325957,301.51575,-2.64202,9.265564,SIT
3293195300000.0,1.1961605548858643,1.2942594289779663,1.0816935300827026,9.397194862365723,-0.03653889521956444,0.015882496,0.020158553,301.5749,-2.67598,9.230436,SIT
3293200500000.0,1.2011600732803345,1.2884527444839478,1.0766156911849976,9.398797035217285,-0.03713090345263481,0.018936822,0.014660766,301.63556,-2.7085267999999996,9.197225,SIT
3293205800000.0,1.206159234046936,1.283201813697815,1.0718084573745728,9.400436401367188,-0.03707282245159149,0.013439035,0.014049901000000002,301.68372,-2.7456443,9.156374000000001,SIT
3293211000000.0,1.211164951324463,1.278483510017395,1.0672574043273926,9.402114868164062,-0.0368550643324852,0.011301007,0.014355333500000001,301.7327,-2.7796952999999998,9.114647999999999,SIT
3293216200000.0,1.216164231300354,1.2743961811065674,1.062824010848999,9.403144836425781,-0.03741394355893135,0.0070249503,0.017715093,301.78002999999995,-2.8115804,9.07549,SIT
3293221500000.0,1.221164584159851,1.271083116531372,1.0583486557006836,9.402729034423828,-0.03799187391996384,0.008246681,0.0125227375,301.8293,-2.8480383999999996,9.036146,SIT
3293226700000.0,1.2261656522750854,1.2687807083129883,1.053694725036621,9.40195369720459,-0.03814834728837013,0.006414085,0.01038471,301.87592,-2.8817801,9.001031,SIT
3293232000000.0,1.2311657667160034,1.2676035165786743,1.0487875938415527,9.401470184326172,-0.038198817521333694,0.008552114,0.012217305,301.92236,-2.9134254,8.965212,SIT
3293237200000.0,1.2361652851104736,1.2671616077423096,1.0444386005401611,9.40137004852295,-0.03836053982377052,0.01740966,0.015882496,301.96735,-2.9445872000000004,8.930655999999999,SIT
3293242500000.0,1.241162896156311,1.267175555229187,1.0411858558654785,9.401707649230957,-0.03872524946928024,0.013439035,0.014049901000000002,302.0131,-2.975529,8.899794,SIT
3293247700000.0,1.2461577653884888,1.2677273750305176,1.0387771129608154,9.402217864990234,-0.03871241956949234,0.013133603,0.004886922,302.0579,-3.003931,8.865716,SIT
3293253000000.0,1.2511950731277466,1.2693229913711548,1.0364967584609985,9.401933670043945,-0.03861888498067856,0.0076358155,0.002443461,302.10095,-3.0293243,8.835085000000001,SIT
3293258200000.0,1.2561882734298706,1.271613597869873,1.0343378782272339,9.401107788085938,-0.03849778324365616,0.004276057,0.004886922,302.14377,-3.0613599999999996,8.805869,SIT
3293263400000.0,1.2611899375915527,1.274737000465393,1.0322941541671753,9.399643898010254,-0.03848079964518547,0.0018325957999999999,0.006414085,302.18716,-3.092862,8.778494,SIT
3293268700000.0,1.2661826610565186,1.278344750404358,1.0304489135742188,9.398036003112793,-0.03825311362743378,0.0030543262,0.005497787,302.23016,-3.125752,8.75157,SIT
3293273700000.0,1.2711820602416992,1.2820141315460205,1.0289558172225952,9.397022247314453,-0.0378585122525692,-0.00030543262000000003,-0.0036651915999999997,302.27475,-3.1578317000000005,8.727053,SIT
3293278600000.0,1.2761766910552979,1.285731554031372,1.0277860164642334,9.396549224853516,-0.03738727420568466,-0.00580322,0.007330383,302.3088,-3.1868749,8.703925,SIT
3293284000000.0,1.2811753749847412,1.2895026206970215,1.0269302129745483,9.396605491638184,-0.0369085967540741,0.004886922,0.0015271631,302.34972999999997,-3.2172463,8.677194,SIT
3293288900000.0,1.2861709594726562,1.2932335138320923,1.0262173414230347,9.397086143493652,-0.03666703402996063,-0.0030543262,-0.0027488936,302.3877,-3.2450333,8.657331,SIT
3293293800000.0,1.2911673784255981,1.2966822385787964,1.0252093076705933,9.397790908813477,-0.03586863726377487,-0.0009162978999999999,-0.00061086525,302.42474,-3.2767402999999997,8.632073,SIT
3293298800000.0,1.2961636781692505,1.2998641729354858,1.0239228010177612,9.398706436157227,-0.03490118309855461,0.008246681,0.004276057,302.46234,-3.3063260000000003,8.608091,SIT
3293303800000.0,1.3011616468429565,1.3027929067611694,1.022370457649231,9.399824142456055,-0.03499448299407959,0.0061086523,0.0070249503,302.4997,-3.3319871,8.587156,SIT
3293308800000.0,1.3061577081680298,1.305483102798462,1.020570993423462,9.401129722595215,-0.034317776560783386,0.009162978,0.0027488936,302.54492,-3.3650900000000004,8.565982,SIT
3293313800000.0,1.3111611604690552,1.3079445362091064,1.0185259580612183,9.40262222290039,-0.0341491773724556,0.0067195175,0.004886922,302.58713,-3.385653,8.547491,SIT
3293318700000.0,1.3161582946777344,1.3101886510849,1.0164217948913574,9.404175758361816,-0.033794235438108444,0.015882496,0.0033597588,302.6308,-3.4138515,8.525018,SIT
3293323700000.0,1.3211631774902344,1.3121840953826904,1.0154626369476318,9.405000686645508,-0.03324660286307335,0.011911871999999999,0.0036651915999999997,302.67307,-3.4392111000000005,8.507397000000001,SIT
3293328700000.0,1.3261616230010986,1.3139506578445435,1.0155351161956787,9.405169486999512,-0.0333629734814167,0.0061086523,0.0067195175,302.71625,-3.4593462999999995,8.493599,SIT
3293333700000.0,1.331158995628357,1.3154979944229126,1.0166034698486328,9.404704093933105,-0.03337547555565834,0.01985312,0.01282817,302.7576,-3.4840827000000005,8.475563000000001,SIT
3293339000000.0,1.3361639976501465,1.316765546798706,1.018527865409851,9.403707504272461,-0.033371035009622574,0.017104227,0.005192355,302.80185,-3.5052779000000003,8.463835000000001,SIT
3293344000000.0,1.3411614894866943,1.3170104026794434,1.0198721885681152,9.403242111206055,-0.03309011459350586,0.015271631,0.011301007,302.8396,-3.5273449999999995,8.448512,SIT
3293349200000.0,1.3461767435073853,1.3162243366241455,1.0206704139709473,9.403285026550293,-0.03288927674293518,0.017715093,0.014966198,302.88596,-3.5560254999999996,8.435201,SIT
3293354100000.0,1.3511736392974854,1.31524658203125,1.0221269130706787,9.40285873413086,-0.03289446979761124,0.007941248,0.010079277,302.93268,-3.5851587999999994,8.425916,SIT
3293359000000.0,1.3561679124832153,1.3140733242034912,1.024248480796814,9.401960372924805,-0.03216690570116043,0.010995574,0.012217305,302.9756,-3.6170409,8.410126,SIT
3293364000000.0,1.3611658811569214,1.3126081228256226,1.0264266729354858,9.40040111541748,-0.031819939613342285,0.015882496,0.016493361,303.0188,-3.6419422999999997,8.396622,SIT
3293369000000.0,1.3661601543426514,1.3108680248260498,1.0286065340042114,9.398218154907227,-0.03136124461889267,0.015271631,0.016798794,303.0621,-3.6728756000000002,8.3838625,SIT
3293374000000.0,1.3711578845977783,1.308858036994934,1.0307910442352295,9.395426750183105,-0.030829330906271935,0.015271631,0.021685716,303.1039,-3.7036865,8.368834,SIT
3293379000000.0,1.3761556148529053,1.306597113609314,1.0329785346984863,9.392067909240723,-0.030374597758054733,0.01282817,0.02076942,303.14685,-3.7341821000000004,8.354718,SIT
3293384000000.0,1.3811538219451904,1.3038244247436523,1.0355151891708374,9.388983726501465,-0.029634827747941017,0.016798794,0.023823743999999997,303.18667999999997,-3.7662623,8.339085,SIT
3293389000000.0,1.3861494064331055,1.3004344701766968,1.0385541915893555,9.386573791503906,-0.029211197048425674,0.021991148999999998,0.025350908,303.22675,-3.794611,8.323879,SIT
3293394000000.0,1.391160249710083,1.296409010887146,1.0421112775802612,9.384836196899414,-0.028728757053613663,0.004581489,0.022296581,303.26837,-3.8275702000000003,8.3125,SIT
3293399000000.0,1.3961578607559204,1.2918622493743896,1.04609215259552,9.383682250976562,-0.02757210098206997,0.011911871999999999,0.02687807,303.30637,-3.861511,8.29299,SIT
3293404000000.0,1.401155710220337,1.2872347831726074,1.0500568151474,9.382833480834961,-0.027160735800862312,0.02107485,0.02321288,303.34747000000004,-3.8885197999999996,8.277788000000001,SIT
3293409000000.0,1.4061524868011475,1.2827285528182983,1.0538102388381958,9.382155418395996,-0.027031730860471725,0.02076942,0.025961772999999997,303.38504,-3.9204774,8.263548,SIT
3293414000000.0,1.4111511707305908,1.278335690498352,1.0573636293411255,9.381640434265137,-0.027137482538819313,0.0030543262,0.022296581,303.43433,-3.9579854,8.257108,SIT
3293419000000.0,1.4161511659622192,1.2740503549575806,1.060727596282959,9.381279945373535,-0.026667891070246696,0.0070249503,0.023823743999999997,303.48032,-3.9974046000000003,8.244665,SIT
3293423900000.0,1.4211502075195312,1.2697938680648804,1.0643794536590576,9.381760597229004,-0.026353545486927032,0.014660766,0.018936822,303.5295,-4.0308795,8.235156,SIT
3293428800000.0,1.4261531829833984,1.265520453453064,1.0685677528381348,9.383434295654297,-0.026267558336257935,0.008857545999999999,0.025045475,303.5747,-4.065812,8.228462,SIT
3293433800000.0,1.4311532974243164,1.2615910768508911,1.0728203058242798,9.385664939880371,-0.026267539709806442,0.005192355,0.025350908,303.62207,-4.1032405,8.221091,SIT
3293438800000.0,1.4361532926559448,1.2583016157150269,1.076760172843933,9.387948036193848,-0.026788396760821342,0.0030543262,0.023823743999999997,303.6678,-4.136391000000001,8.214834,SIT
3293443800000.0,1.441152572631836,1.2556169033050537,1.0804041624069214,9.390281677246094,-0.02742799185216427,0.00061086525,0.018936822,303.71332,-4.176893700000001,8.211215,SIT
3293448800000.0,1.446153163909912,1.25350821018219,1.083767294883728,9.392663955688477,-0.02739868499338627,-0.00061086525,0.018020526000000002,303.75766,-4.217959400000001,8.207619000000001,SIT
3293453700000.0,1.451153039932251,1.251941442489624,1.0868653059005737,9.39509105682373,-0.02748488076031208,0.0012217305,0.0076358155,303.8088,-4.252232,8.203436,SIT
3293458700000.0,1.456152081489563,1.250887393951416,1.089712381362915,9.397561073303223,-0.027631593868136406,0.009468411,0.015577064,303.8542,-4.288748,8.197814,SIT
3293463700000.0,1.461150050163269,1.2501980066299438,1.0931864976882935,9.399832725524902,-0.028193699195981026,0.00580322,0.013133603,303.90515,-4.322973,8.194317999999999,SIT
3293468700000.0,1.4661505222320557,1.2497754096984863,1.097855806350708,9.401753425598145,-0.02888862043619156,0.0021380284,0.013439035,303.9523,-4.357189,8.188492,SIT
3293473700000.0,1.471150517463684,1.2496765851974487,1.103050947189331,9.403145790100098,-0.029107019305229187,0.008857545999999999,0.01160644,303.9941,-4.395552599999999,8.187341,SIT
3293479000000.0,1.4761525392532349,1.250016450881958,1.1077091693878174,9.40368366241455,-0.029557939618825912,0.010079277,0.008857545999999999,304.0358,-4.428756,8.188360000000001,SIT
3293484000000.0,1.481151819229126,1.25076425075531,1.111863613128662,9.403425216674805,-0.030375486239790916,0.0015271631,0.010690141499999998,304.07886,-4.4673185,8.189616000000001,SIT
3293489000000.0,1.4861522912979126,1.2519041299819946,1.115537405014038,9.402403831481934,-0.03137734532356262,-0.007330383,0.009468411,304.12305,-4.5049176,8.190135,SIT
3293493900000.0,1.4911514520645142,1.2534115314483643,1.1187584400177002,9.400665283203125,-0.03216303884983063,-0.0030543262,0.0033597588,304.16364,-4.543895,8.188155,SIT
3293498800000.0,1.4961520433425903,1.255271077156067,1.1215482950210571,9.39824104309082,-0.0330045260488987,-0.0061086523,0.01038471,304.20068,-4.57905,8.190656,SIT
3293503800000.0,1.50115168094635,1.2578293085098267,1.1234890222549438,9.39517593383789,-0.03344306722283363,0.00030543262000000003,0.009162978,304.2411,-4.6173525,8.188533999999999,SIT
3293509000000.0,1.5061886310577393,1.2617179155349731,1.1238596439361572,9.391393661499023,-0.03423261642456055,0.0033597588,0.010690141499999998,304.27837999999997,-4.650128,8.188102,SIT
3293514000000.0,1.5111842155456543,1.2658189535140991,1.1231248378753662,9.387716293334961,-0.03501264005899429,-0.004581489,0.005497787,304.32016,-4.681642500000001,8.1953945,SIT
3293519000000.0,1.516182541847229,1.2694464921951294,1.12115478515625,9.384745597839355,-0.0357510969042778,-0.009468411,0.004886922,304.35953,-4.710557,8.2006235,SIT
3293524000000.0,1.5211780071258545,1.2726411819458008,1.1186623573303223,9.382316589355469,-0.03615720570087433,-0.008246681,0.0036651915999999997,304.39633,-4.735852700000001,8.2101345,SIT
3293529000000.0,1.5261787176132202,1.2754333019256592,1.1165350675582886,9.380249977111816,-0.03626495599746704,-0.011911871999999999,0.004886922,304.4323,-4.7605677,8.221838,SIT
3293534000000.0,1.5311769247055054,1.2780412435531616,1.1145565509796143,9.378525733947754,-0.03643207252025604,-0.016798794,0.012217305,304.46417,-4.780488500000001,8.233127,SIT
3293539000000.0,1.5361758470535278,1.2812949419021606,1.11189866065979,9.377154350280762,-0.036443788558244705,-0.0033597588,0.012217305,304.49695,-4.8028603,8.239478,SIT
3293544000000.0,1.5411722660064697,1.2851505279541016,1.1086071729660034,9.376114845275879,-0.03656882047653198,0.0018325957999999999,0.0036651915999999997,304.53104,-4.8224,8.246098,SIT
3293549000000.0,1.5461711883544922,1.2895901203155518,1.1047016382217407,9.375393867492676,-0.03647558391094208,0.0036651915999999997,0.0036651915999999997,304.56195,-4.8437505,8.249661,SIT
3293554000000.0,1.5511670112609863,1.2940280437469482,1.1003069877624512,9.37496566772461,-0.036305930465459824,-0.00061086525,0.009162978,304.59308,-4.866973000000001,8.257413,SIT
3293558900000.0,1.5561652183532715,1.2969791889190674,1.0956465005874634,9.374810218811035,-0.03642203286290169,-0.0015271631,0.009773844,304.625,-4.8891644,8.263100999999999,SIT
3293563800000.0,1.5611672401428223,1.298967719078064,1.0907350778579712,9.375300407409668,-0.03649939224123955,-0.004886922,0.009773844,304.64948,-4.902379,8.268028,SIT
3293568800000.0,1.566166639328003,1.301561951637268,1.0856108665466309,9.377662658691406,-0.036670293658971786,-0.005192355,0.011911871999999999,304.6727,-4.913171299999999,8.272117999999999,SIT
3293573800000.0,1.5711644887924194,1.3047153949737549,1.0803682804107666,9.381596565246582,-0.03649026155471802,0.00030543262000000003,0.01038471,304.69455,-4.927991400000001,8.273060000000001,SIT
3293579000000.0,1.5762231349945068,1.3083388805389404,1.0760432481765747,9.384682655334473,-0.03615705296397209,-0.00030543262000000003,0.014049901000000002,304.7141,-4.940843599999999,8.275773,SIT
3293584000000.0,1.5812169313430786,1.3121458292007446,1.0722872018814087,9.38729476928711,-0.036134593188762665,-0.007330383,0.01038471,304.73444,-4.9473934,8.275702,SIT
3293589000000.0,1.58621346950531,1.3160769939422607,1.068731427192688,9.390012741088867,-0.03591800108551979,0.003970624,0.006414085,304.75302,-4.9571767,8.270596000000001,SIT
3293594000000.0,1.5912173986434937,1.3201316595077515,1.0653650760650635,9.39283561706543,-0.03537112846970558,0.007330383,0.01160644,304.77057,-4.9672265,8.270892,SIT
3293599000000.0,1.5962140560150146,1.3242859840393066,1.062178134918213,9.395744323730469,-0.03524405509233475,0.009468411,0.0125227375,304.78992,-4.9746594,8.268046,SIT
3293604200000.0,1.6012297868728638,1.328566074371338,1.0591610670089722,9.398758888244629,-0.03535163775086403,0.004581489,0.010995574,304.81836,-4.981992,8.271678,SIT
3293609200000.0,1.6062252521514893,1.332918643951416,1.0563048124313354,9.401838302612305,-0.03509538620710373,0.01038471,0.014660766,304.8442,-4.9901433,8.2715845,SIT
3293614200000.0,1.6112220287322998,1.3373647928237915,1.053600788116455,9.404997825622559,-0.03486906737089157,0.01282817,0.011301007,304.87286,-4.9954863,8.273875,SIT
3293619200000.0,1.6162182092666626,1.3412292003631592,1.0520387887954712,9.408228874206543,-0.03439437225461006,0.014049901000000002,0.016493361,304.89743,-5.0037093,8.274953,SIT
3293624100000.0,1.621213436126709,1.344408392906189,1.051758050918579,9.411527633666992,-0.03420541435480118,0.005192355,0.01985312,304.92322,-5.009303,8.277898,SIT
3293629000000.0,1.6262085437774658,1.3465626239776611,1.052026391029358,9.413474082946777,-0.033473096787929535,0.0067195175,0.018020526000000002,304.94723999999997,-5.0197330000000004,8.279763,SIT
3293634000000.0,1.6312055587768555,1.3475821018218994,1.0525355339050293,9.413531303405762,-0.03238914906978607,0.011911871999999999,0.022296581,304.9682,-5.027516,8.283063,SIT
3293639000000.0,1.636201024055481,1.3476871252059937,1.0532785654067993,9.413782119750977,-0.03214428201317787,0.010079277,0.02107485,304.99393,-5.036496,8.285164,SIT
3293644000000.0,1.6411973237991333,1.3469847440719604,1.0542491674423218,9.415087699890137,-0.03178224340081215,0.01038471,0.025961772999999997,305.0161,-5.0517364,8.285255000000001,SIT
3293649300000.0,1.6462270021438599,1.3457990884780884,1.0548840761184692,9.415874481201172,-0.031000010669231415,0.0070249503,0.02321288,305.0422,-5.066541,8.284259,SIT
3293654300000.0,1.6512216329574585,1.344344139099121,1.0551527738571167,9.41595458984375,-0.03053618036210537,0.007941248,0.024129177,305.06537000000003,-5.0777116,8.2820635,SIT
3293659300000.0,1.6562150716781616,1.3425886631011963,1.0550289154052734,9.415273666381836,-0.03009706921875477,0.008552114,0.019242255,305.09198,-5.093962,8.278069,SIT
3293664200000.0,1.661208987236023,1.3405464887619019,1.054531455039978,9.41386890411377,-0.02948603220283985,0.008246681,0.016798794,305.1173,-5.109445,8.274096,SIT
3293669200000.0,1.6662026643753052,1.3384690284729004,1.0541512966156006,9.412391662597656,-0.028679674491286278,-0.004886922,0.024740042,305.14099999999996,-5.124688,8.273697,SIT
3293674200000.0,1.6711965799331665,1.3364390134811401,1.054044246673584,9.411056518554688,-0.027737239375710487,0.0076358155,0.02076942,305.1678,-5.141091,8.265634,SIT
3293679200000.0,1.6761924028396606,1.3344535827636719,1.0541975498199463,9.409855842590332,-0.027072912082076073,-0.0027488936,0.021380282999999996,305.17776000000003,-5.155825,8.257717999999999,SIT
3293684200000.0,1.6811891794204712,1.3325104713439941,1.0545964241027832,9.408782958984375,-0.026509098708629608,0.0067195175,0.016187929,305.18973,-5.1724596,8.240661,SIT
3293689200000.0,1.686185598373413,1.3306077718734741,1.0552265644073486,9.407830238342285,-0.02626832388341427,0.009468411,0.018325957,305.2077,-5.187459,8.237651,SIT
3293694100000.0,1.691183090209961,1.3287429809570312,1.0560771226882935,9.406991958618164,-0.025828775018453598,-0.008857545999999999,0.01038471,305.2302,-5.205139599999999,8.237539,SIT
3293699000000.0,1.6961805820465088,1.3269144296646118,1.0571352243423462,9.406261444091797,-0.02497316338121891,0.005497787,0.016493361,305.24686,-5.2215753,8.227767,SIT
3293704000000.0,1.7011785507202148,1.325119972229004,1.0583902597427368,9.405632972717285,-0.024781689047813416,0.008246681,0.013133603,305.26904,-5.233951,8.225922,SIT
3293709000000.0,1.7061762809753418,1.3232417106628418,1.0599770545959473,9.406333923339844,-0.024405090138316154,0.013439035,0.016187929,305.28506,-5.257758,8.225355,SIT
3293714000000.0,1.7111741304397583,1.321230411529541,1.0619455575942993,9.408863067626953,-0.024129947647452354,0.007330383,0.007941248,305.30536,-5.2769804,8.226653,SIT
3293719000000.0,1.7161682844161987,1.3192729949951172,1.063980221748352,9.411941528320312,-0.023429980501532555,0.009162978,0.00580322,305.32773,-5.2996935999999994,8.22183,SIT
3293724000000.0,1.7211625576019287,1.3175538778305054,1.0657724142074585,9.41431999206543,-0.02349979802966118,0.0061086523,0.008857545999999999,305.35098,-5.315494,8.219928999999999,SIT
3293729000000.0,1.726158618927002,1.3160611391067505,1.0673342943191528,9.416032791137695,-0.023077573627233505,0.010690141499999998,0.0033597588,305.37915,-5.344321,8.218002,SIT
3293734000000.0,1.7311536073684692,1.3147814273834229,1.0686794519424438,9.417119979858398,-0.02277551405131817,0.008552114,0.005192355,305.40427,-5.365271,8.218884,SIT
3293739000000.0,1.7361483573913574,1.3144598007202148,1.0697400569915771,9.417805671691895,-0.02292904071509838,0.004581489,0.01038471,305.42492999999996,-5.388262999999999,8.216891,SIT
3293744000000.0,1.7411457300186157,1.3154257535934448,1.0704900026321411,9.418200492858887,-0.023334823548793793,0.006414085,0.0061086523,305.4475,-5.4114585,8.213499,SIT
3293749000000.0,1.7461411952972412,1.3162806034088135,1.0714428424835205,9.418652534484863,-0.02349109761416912,0.00061086525,0.009162978,305.46582,-5.4331555,8.214755,SIT
3293754000000.0,1.7511368989944458,1.3163248300552368,1.072854995727539,9.41933536529541,-0.023411160334944725,-0.0018325957999999999,0.005497787,305.48697000000004,-5.4535246,8.21407,SIT
3293759000000.0,1.756131649017334,1.3167366981506348,1.0753343105316162,9.419590950012207,-0.023579644039273262,-0.0012217305,0.0015271631,305.50034,-5.469571,8.212235,SIT
3293763900000.0,1.7611279487609863,1.3181307315826416,1.0791877508163452,9.419079780578613,-0.023706594482064247,-0.009468411,0.004276057,305.51302999999996,-5.487759,8.213598,SIT
3293768800000.0,1.7661242485046387,1.3195408582687378,1.0835065841674805,9.418375015258789,-0.0233710128813982,-0.004581489,0.0067195175,305.52454,-5.507405,8.203482000000001,SIT
3293773800000.0,1.7711213827133179,1.3203672170639038,1.0877224206924438,9.417835235595703,-0.023232366889715195,-0.011911871999999999,-0.00061086525,305.53857,-5.5237675,8.199084,SIT
3293778800000.0,1.7761192321777344,1.320641040802002,1.0918407440185547,9.417450904846191,-0.022824395447969437,-0.01160644,0.002443461,305.5503,-5.548178,8.193355,SIT
3293783800000.0,1.7811161279678345,1.3203948736190796,1.0958659648895264,9.417213439941406,-0.022877654060721397,-0.007330383,0.0021380284,305.56506,-5.567773000000001,8.188259,SIT
3293788800000.0,1.7861131429672241,1.320166826248169,1.0995845794677734,9.41689682006836,-0.022586248815059662,-0.013744468000000001,0.0012217305,305.57935,-5.5923739999999995,8.186167,SIT
3293793700000.0,1.7911121845245361,1.3203296661376953,1.102852463722229,9.41634464263916,-0.022245265543460846,-0.007330383,0.008552114,305.5908,-5.612405,8.179451,SIT
3293798700000.0,1.7961091995239258,1.320857048034668,1.1056973934173584,9.415573120117188,-0.02247588336467743,-0.0021380284,0.012217305,305.6045,-5.6313305,8.170192,SIT
3293803700000.0,1.8011109828948975,1.3217390775680542,1.1081355810165405,9.414587020874023,-0.022710487246513367,-0.003970624,0.008552114,305.6182,-5.652988400000001,8.161267,SIT
3293808700000.0,1.8061126470565796,1.3223572969436646,1.110061526298523,9.413798332214355,-0.02311163954436779,0.0018325957999999999,0.011301007,305.6286,-5.6700473,8.149192999999999,SIT
3293814000000.0,1.8111180067062378,1.3221805095672607,1.1113768815994263,9.413559913635254,-0.023996012285351753,0.0009162978999999999,0.010690141499999998,305.6412,-5.6852126,8.139552,SIT
3293819000000.0,1.8161191940307617,1.320904016494751,1.1118825674057007,9.413215637207031,-0.02436120994389057,0.0021380284,0.013439035,305.65005,-5.7020345,8.130579,SIT
3293824000000.0,1.8211208581924438,1.3181850910186768,1.1113543510437012,9.412135124206543,-0.025097602978348732,0.005497787,0.018936822,305.6582,-5.7112913,8.1215105,SIT
3293829000000.0,1.8261219263076782,1.3152507543563843,1.109967589378357,9.410246849060059,-0.026152852922677994,0.006414085,0.016798794,305.68118,-5.711594,8.109108,SIT
3293833900000.0,1.831131935119629,1.3135062456130981,1.107879638671875,9.407425880432129,-0.026793763041496277,0.017104227,0.021991148999999998,305.69973999999996,-5.713346499999999,8.093642,SIT
3293838800000.0,1.836129069328308,1.312589406967163,1.105855107307434,9.404569625854492,-0.02683081105351448,0.014660766,0.016798794,305.7212,-5.717461599999999,8.0836115,SIT
3293843800000.0,1.8411306142807007,1.312184453010559,1.1048645973205566,9.402791976928711,-0.02715887688100338,0.010079277,0.018325957,305.7387,-5.718542,8.071797,SIT
3293848800000.0,1.846126675605774,1.3120044469833374,1.104762077331543,9.401901245117188,-0.027567123994231224,0.0125227375,0.021380282999999996,305.74615,-5.7213187,8.055622999999999,SIT
3293853800000.0,1.8511279821395874,1.3107255697250366,1.1052192449569702,9.401334762573242,-0.028148941695690155,0.015882496,0.01863139,305.75487999999996,-5.7222800000000005,8.0407715,SIT
3293858800000.0,1.8561265468597412,1.3086849451065063,1.1059305667877197,9.40085220336914,-0.028146322816610336,0.013133603,0.02076942,305.76147000000003,-5.7228449999999995,8.018863,SIT
3293863700000.0,1.861128807067871,1.3065143823623657,1.106245994567871,9.399918556213379,-0.028306616470217705,0.021380282999999996,0.020463986,305.76912999999996,-5.719051400000001,7.9934497,SIT
3293868700000.0,1.8661268949508667,1.3042277097702026,1.1061967611312866,9.398571014404297,-0.02816537581384182,0.014660766,0.025045475,305.77734,-5.7227864,7.970864999999999,SIT
3293873700000.0,1.871128797531128,1.3018239736557007,1.1057919263839722,9.396817207336426,-0.028324654325842857,0.015882496,0.02321288,305.78700000000003,-5.7229790000000005,7.944278,SIT
3293879000000.0,1.8761508464813232,1.2993348836898804,1.1050339937210083,9.394710540771484,-0.028524275869131088,0.015882496,0.02565634,305.79434,-5.725786,7.9209309999999995,SIT
3293884000000.0,1.8811516761779785,1.2976164817810059,1.1041038036346436,9.393567085266113,-0.029152749106287956,0.02321288,0.030543262,305.80124,-5.725082,7.8958770000000005,SIT
3293889000000.0,1.8861465454101562,1.2966644763946533,1.1029982566833496,9.393383979797363,-0.029780283570289612,0.016493361,0.027183502999999998,305.81042,-5.727377400000001,7.8789387,SIT
3293894000000.0,1.8911466598510742,1.296045184135437,1.102075457572937,9.3933687210083,-0.030113937333226204,0.01985312,0.017715093,305.81946,-5.7291155,7.857635,SIT
3293898900000.0,1.8961446285247803,1.2955831289291382,1.1014504432678223,9.393229484558105,-0.030494919046759605,0.009773844,0.020463986,305.8265,-5.7287626,7.842878,SIT
3293903800000.0,1.9011516571044922,1.295275330543518,1.1011178493499756,9.39296817779541,-0.03113231249153614,0.007941248,0.020463986,305.83527000000004,-5.7311214999999995,7.831198,SIT
3293908800000.0,1.906150221824646,1.2951053380966187,1.1010459661483765,9.392600059509277,-0.03139391168951988,0.015271631,0.020463986,305.84317000000004,-5.736344,7.8201094,SIT
3293913800000.0,1.9111486673355103,1.2952334880828857,1.1012260913848877,9.392292022705078,-0.03193456307053566,0.016493361,0.020158553,305.85132000000004,-5.7367873,7.811503,SIT
3293918800000.0,1.9161484241485596,1.2957276105880737,1.1016452312469482,9.39212417602539,-0.032088298350572586,0.017104227,0.016187929,305.8603,-5.742675,7.8011550000000005,SIT
3293923800000.0,1.9211492538452148,1.2965680360794067,1.102290391921997,9.39208984375,-0.03288493677973747,0.007941248,0.016493361,305.86322,-5.7498016,7.797963,SIT
3293928800000.0,1.9261524677276611,1.2977381944656372,1.1031508445739746,9.392182350158691,-0.03303685784339905,0.011301007,0.015271631,305.86742999999996,-5.7654285000000005,7.791002000000001,SIT
3293933700000.0,1.931151032447815,1.298967957496643,1.1040328741073608,9.392492294311523,-0.03365272656083107,0.009773844,0.014355333500000001,305.87186,-5.7716449999999995,7.7881206999999995,SIT
3293939000000.0,1.9361869096755981,1.300044059753418,1.1047797203063965,9.39313793182373,-0.0342683270573616,0.01038471,0.006414085,305.87854,-5.783453,7.783513,SIT
3293944000000.0,1.9411838054656982,1.3009963035583496,1.1054202318191528,9.394015312194824,-0.03486739844083786,0.004276057,0.009162978,305.87482,-5.7926774000000005,7.7757273,SIT
3293949000000.0,1.946179986000061,1.3018207550048828,1.1059496402740479,9.395153999328613,-0.03532060235738754,0.014049901000000002,0.011911871999999999,305.87307999999996,-5.802516000000001,7.763319,SIT
3293954000000.0,1.9511749744415283,1.3025243282318115,1.106373906135559,9.396539688110352,-0.035245057195425034,0.007941248,0.011911871999999999,305.87207,-5.8141327,7.7574244000000006,SIT
3293959000000.0,1.9561723470687866,1.303112506866455,1.106697678565979,9.398162841796875,-0.035385143011808395,0.0027488936,0.00580322,305.87195,-5.822451,7.748709,SIT
3293964100000.0,1.961197853088379,1.3035762310028076,1.106927752494812,9.400016784667969,-0.035322435200214386,0.004581489,0.011301007,305.88083,-5.8291554,7.743371000000001,SIT
3293969000000.0,1.9661928415298462,1.3037890195846558,1.107258677482605,9.401545524597168,-0.0358164981007576,0.0076358155,0.0030543262,305.8954,-5.831504,7.738633,SIT
3293974000000.0,1.971192717552185,1.3037320375442505,1.107701063156128,9.402734756469727,-0.03612145781517029,0.0009162978999999999,0.003970624,305.90558,-5.837260700000001,7.735888,SIT
3293979000000.0,1.976191520690918,1.3034253120422363,1.1082463264465332,9.403607368469238,-0.03660549223423004,0.0027488936,0.010690141499999998,305.916,-5.838333,7.7298894,SIT
3293984000000.0,1.9811869859695435,1.3028842210769653,1.1088879108428955,9.404182434082031,-0.037080008536577225,0.004581489,0.014660766,305.9269,-5.8413334,7.7258105,SIT
3293989000000.0,1.9861855506896973,1.301876187324524,1.1087945699691772,9.404942512512207,-0.037952449172735214,0.003970624,0.01282817,305.93512000000004,-5.843439,7.723007000000001,SIT
3293994000000.0,1.991180658340454,1.3004167079925537,1.1079484224319458,9.405915260314941,-0.03884350508451462,0.005192355,0.014355333500000001,305.94107,-5.8470435,7.719448,SIT
3293999000000.0,1.9961800575256348,1.2994683980941772,1.1066107749938965,9.406381607055664,-0.03928013890981674,-0.003970624,0.015577064,305.94888,-5.852286,7.717663000000001,SIT
3294004000000.0,2.001173257827759,1.2990669012069702,1.1048481464385986,9.406327247619629,-0.039367955178022385,0.0012217305,0.019547688,305.9549,-5.856598,7.7116776,SIT
3294009000000.0,2.006190061569214,1.2982542514801025,1.1024061441421509,9.405261039733887,-0.03910926729440689,0.004886922,0.019547688,305.96103,-5.864552,7.7121262999999995,SIT
3294014000000.0,2.0111851692199707,1.2970352172851562,1.0994198322296143,9.403352737426758,-0.03959684818983078,0.004886922,0.013133603,305.96777000000003,-5.868432,7.712012,SIT
3294019000000.0,2.016183614730835,1.2955775260925293,1.0960296392440796,9.400723457336426,-0.039830561727285385,0.009162978,0.014049901000000002,305.97073,-5.8769217000000005,7.7116679999999995,SIT
3294024000000.0,2.02117657661438,1.2939438819885254,1.0923129320144653,9.397473335266113,-0.04010065272450447,0.004276057,0.014966198,305.9757,-5.880221400000001,7.713690799999999,SIT
3294029000000.0,2.0261740684509277,1.293006181716919,1.0882768630981445,9.394922256469727,-0.0403563492000103,0.006414085,0.016493361,305.9855,-5.883349,7.7178081999999995,SIT
3294034000000.0,2.0311684608459473,1.2928694486618042,1.08395516872406,9.393258094787598,-0.040582139045000076,0.00030543262000000003,0.017104227,305.9955,-5.886271499999999,7.725407000000001,SIT
3294038900000.0,2.036165952682495,1.293290615081787,1.0791457891464233,9.392232894897461,-0.040388964116573334,0.00580322,0.018325957,306.00366,-5.889945,7.728846000000001,SIT
3294043800000.0,2.0411622524261475,1.2941874265670776,1.0738455057144165,9.39176082611084,-0.04032002389431,0.010690141499999998,0.02076942,306.0113,-5.89085,7.7339845,SIT
3294048800000.0,2.0461602210998535,1.296086311340332,1.0698134899139404,9.392743110656738,-0.04009198397397995,0.004276057,0.015271631,306.02185,-5.892180000000001,7.743375,SIT
3294053800000.0,2.0511562824249268,1.2990552186965942,1.0674018859863281,9.395312309265137,-0.04007142782211304,0.013133603,0.014966198,306.0294,-5.8907447,7.7470064,SIT
3294058800000.0,2.0561559200286865,1.302644968032837,1.0651172399520874,9.398523330688477,-0.040279850363731384,0.01160644,0.007941248,306.0298,-5.887983999999999,7.749346000000001,SIT
3294063800000.0,2.0611605644226074,1.30659019947052,1.0621341466903687,9.401836395263672,-0.04068876802921295,0.013744468000000001,0.020158553,306.02438,-5.883606400000001,7.748717999999999,SIT
3294068700000.0,2.066160202026367,1.3110201358795166,1.0596872568130493,9.405415534973145,-0.04060385003685951,0.013133603,0.009468411,306.02982000000003,-5.8837676,7.747534,SIT
3294073700000.0,2.071162223815918,1.3159818649291992,1.0581386089324951,9.40931510925293,-0.04099550098180771,0.015271631,0.016798794,306.0264,-5.876735,7.7459373,SIT
3294079000000.0,2.076174259185791,1.3212699890136719,1.0572632551193237,9.41373062133789,-0.04135000333189964,0.01740966,0.022296581,306.02463,-5.872595,7.7460119999999995,SIT
3294084000000.0,2.081173896789551,1.3267605304718018,1.0569188594818115,9.4186372756958,-0.041115906089544296,0.008857545999999999,0.01863139,306.02362,-5.8691525,7.748525,SIT
3294089000000.0,2.0861728191375732,1.3322794437408447,1.0569137334823608,9.422774314880371,-0.040747787803411484,0.004886922,0.016187929,306.0211,-5.865158999999999,7.750692999999999,SIT
3294094000000.0,2.091171979904175,1.337754726409912,1.057159423828125,9.425689697265625,-0.03987841308116913,0.008246681,0.015271631,306.0192,-5.8663099999999995,7.753080000000001,SIT
3294099000000.0,2.0961716175079346,1.3428488969802856,1.057810664176941,9.428297996520996,-0.03946230560541153,0.0070249503,0.01282817,306.024,-5.8644953,7.7625836999999995,SIT
3294103900000.0,2.101170778274536,1.3474241495132446,1.058922290802002,9.431015014648438,-0.03923114389181137,0.014966198,0.016798794,306.0267,-5.8664513,7.768399700000001,SIT
3294108800000.0,2.1061694622039795,1.3519818782806396,1.0596818923950195,9.43384075164795,-0.03865420073270798,0.0070249503,0.010690141499999998,306.0368,-5.868327,7.7793603000000004,SIT
3294113800000.0,2.1111669540405273,1.356809139251709,1.059632420539856,9.436772346496582,-0.03773362562060356,0.010690141499999998,0.019242255,306.04082999999997,-5.8687744,7.785089500000001,SIT
3294118800000.0,2.116166353225708,1.361410140991211,1.0589878559112549,9.439168930053711,-0.03707371652126312,0.0076358155,0.01985312,306.0503,-5.8702674,7.793182400000001,SIT
3294123800000.0,2.121166944503784,1.3655188083648682,1.057883620262146,9.440696716308594,-0.036660581827163696,0.01038471,0.017104227,306.05782999999997,-5.873471,7.798507000000001,SIT
3294128800000.0,2.1261677742004395,1.369006633758545,1.0570707321166992,9.441085815429688,-0.03589508309960365,0.005192355,0.016493361,306.06088,-5.8763165,7.8077083,SIT
3294133700000.0,2.131166696548462,1.3717936277389526,1.0570734739303589,9.440166473388672,-0.03468206152319908,0.0070249503,0.013133603,306.0651,-5.8788753,7.81376,SIT
3294138700000.0,2.1361660957336426,1.3743743896484375,1.0570865869522095,9.438467979431152,-0.03389178588986397,0.014660766,0.014355333500000001,306.05914,-5.878656400000001,7.8139256999999995,SIT
3294143700000.0,2.141165256500244,1.3770719766616821,1.0565904378890991,9.436351776123047,-0.0333552323281765,0.008857545999999999,0.014966198,306.0548,-5.881825,7.8172673999999995,SIT
3294148700000.0,2.146162271499634,1.379582405090332,1.0557652711868286,9.433550834655762,-0.032782163470983505,0.01160644,0.014049901000000002,306.05215,-5.8874903,7.8145313,SIT
3294153700000.0,2.1511621475219727,1.3817036151885986,1.0547285079956055,9.429876327514648,-0.03228846564888954,0.0070249503,0.011301007,306.05032,-5.8913517,7.8155410000000005,SIT
3294158700000.0,2.156161069869995,1.383025884628296,1.0539287328720093,9.426691055297852,-0.03152808919548988,0.01863139,0.013744468000000001,306.04562000000004,-5.895459,7.8125205,SIT
3294164000000.0,2.161163568496704,1.3832529783248901,1.0536839962005615,9.424956321716309,-0.030873343348503113,0.016187929,0.013744468000000001,306.04303,-5.8975263,7.814649,SIT
3294169000000.0,2.166163206100464,1.3831671476364136,1.0544970035552979,9.424275398254395,-0.030237212777137756,0.013744468000000001,0.008552114,306.04082999999997,-5.9012103,7.8132925,SIT
3294173900000.0,2.1711647510528564,1.383334755897522,1.056760311126709,9.42437744140625,-0.030107026919722557,0.016187929,0.011301007,306.0364,-5.9015484,7.8115516000000005,SIT
3294178800000.0,2.1761648654937744,1.3829796314239502,1.059518575668335,9.424590110778809,-0.02952801249921322,0.013133603,0.009773844,306.0365,-5.9100776,7.8091598,SIT
3294183800000.0,2.1811647415161133,1.3813539743423462,1.061871886253357,9.424275398254395,-0.028914745897054672,0.01863139,0.01282817,306.03418,-5.9136543,7.803991000000001,SIT
3294188800000.0,2.186163902282715,1.3788121938705444,1.0641008615493774,9.423349380493164,-0.028285330161452293,0.0076358155,0.012217305,306.0365,-5.923993,7.803675699999999,SIT
3294194000000.0,2.19120454788208,1.375555157661438,1.0664945840835571,9.421622276306152,-0.027949895709753036,0.011911871999999999,0.01863139,306.03533999999996,-5.9323926,7.797882,SIT
3294199000000.0,2.196201801300049,1.3719463348388672,1.0689730644226074,9.419963836669922,-0.028055548667907715,0.01160644,0.017715093,306.0341,-5.9382434,7.787188499999999,SIT
3294204000000.0,2.2011992931365967,1.368017315864563,1.0715757608413696,9.419034004211426,-0.02778119221329689,0.008246681,0.009162978,306.03333,-5.9468718,7.7764955,SIT
3294209000000.0,2.2061960697174072,1.3637865781784058,1.0742952823638916,9.418792724609375,-0.02745634689927101,0.019547688,0.011911871999999999,306.0306,-5.9526296,7.760436,SIT
3294214000000.0,2.211193799972534,1.3592675924301147,1.0771267414093018,9.419206619262695,-0.027376696467399597,0.01282817,0.01863139,306.02997,-5.958863,7.7506960000000005,SIT
3294219000000.0,2.2161865234375,1.3544938564300537,1.0798943042755127,9.4197359085083,-0.027447788044810295,0.018020526000000002,0.018325957,306.03946,-5.960418,7.735641499999999,SIT
3294224000000.0,2.2211873531341553,1.3494642972946167,1.0823867321014404,9.419726371765137,-0.027287207543849945,0.025045475,0.013439035,306.0484,-5.962782,7.722378699999999,SIT
3294229000000.0,2.2261850833892822,1.3442127704620361,1.0846238136291504,9.419227600097656,-0.02720029465854168,0.02107485,0.01160644,306.05862,-5.964837,7.7078295,SIT
3294234000000.0,2.2311837673187256,1.338743805885315,1.086617350578308,9.418257713317871,-0.027313340455293655,0.010995574,0.019242255,306.06744,-5.9673147,7.6936564,SIT
3294238900000.0,2.2361767292022705,1.3333940505981445,1.088265061378479,9.41693115234375,-0.027534304186701775,0.015577064,0.014966198,306.0798,-5.970488,7.676475,SIT
3294243800000.0,2.241175889968872,1.3288419246673584,1.0893124341964722,9.415419578552246,-0.02793882042169571,0.011301007,0.015271631,306.0891,-5.971801999999999,7.665412,SIT
3294248800000.0,2.2461700439453125,1.3248475790023804,1.0896316766738892,9.413777351379395,-0.02786601334810257,0.01160644,0.011301007,306.10458,-5.975428599999999,7.6510034,SIT
3294253800000.0,2.2511696815490723,1.3209365606307983,1.088767409324646,9.412093162536621,-0.027813363820314407,0.011911871999999999,0.016798794,306.11716,-5.975313,7.6384463,SIT
3294258800000.0,2.256164789199829,1.3171088695526123,1.086823582649231,9.41037368774414,-0.02769841067492962,0.008246681,0.009468411,306.13306,-5.976942500000001,7.628522,SIT
3294264000000.0,2.261186122894287,1.3133456707000732,1.0837278366088867,9.408605575561523,-0.027377977967262268,0.0076358155,0.016187929,306.14307,-5.978658,7.618506,SIT
3294269000000.0,2.2661819458007812,1.3096693754196167,1.080371618270874,9.406950950622559,-0.02726995013654232,0.01160644,0.008552114,306.1511,-5.986657599999999,7.6102195,SIT
3294274000000.0,2.2711777687072754,1.3060684204101562,1.0782792568206787,9.405746459960938,-0.0273630078881979,0.006414085,0.009468411,306.15506,-5.994998000000001,7.605332000000001,SIT
3294279000000.0,2.2761735916137695,1.3025387525558472,1.0773842334747314,9.40496826171875,-0.027206946164369583,0.008246681,0.009162978,306.15765,-5.995432,7.595169500000001,SIT
3294284000000.0,2.281170606613159,1.2990760803222656,1.0776267051696777,9.404594421386719,-0.027042923495173454,0.010995574,0.006414085,306.16083,-5.9937906,7.586436,SIT
3294289000000.0,2.2861740589141846,1.2957217693328857,1.078928828239441,9.404546737670898,-0.02709924802184105,0.0030543262,0.010690141499999998,306.15225,-5.9989433,7.580984,SIT
3294294000000.0,2.291170835494995,1.2930744886398315,1.080689787864685,9.403973579406738,-0.02698979713022709,0.004276057,0.005497787,306.14703,-6.006442,7.5720644,SIT
3294299000000.0,2.296173334121704,1.2909754514694214,1.0829038619995117,9.403023719787598,-0.026365304365754128,0.012217305,0.009773844,306.14246,-6.021101,7.5615883,SIT
3294304000000.0,2.301170587539673,1.2887390851974487,1.085498332977295,9.402373313903809,-0.026360075920820236,0.004581489,0.009773844,306.14117000000005,-6.030749,7.5551615000000005,SIT
3294308900000.0,2.3061678409576416,1.2864370346069336,1.0883638858795166,9.40190315246582,-0.026762060821056366,-0.0076358155,0.006414085,306.14914,-6.0438066,7.5552077,SIT
3294313800000.0,2.3111672401428223,1.2844493389129639,1.0909489393234253,9.401010513305664,-0.026133427396416664,-0.002443461,0.004886922,306.1562,-6.0609402999999995,7.5524830000000005,SIT
3294318800000.0,2.316164970397949,1.2827569246292114,1.093269944190979,9.399724006652832,-0.02581501007080078,-0.005497787,0.00580322,306.1583,-6.07118,7.549237299999999,SIT
3294323800000.0,2.321164131164551,1.281346082687378,1.0953397750854492,9.398058891296387,-0.02559494785964489,-0.010995574,0.0061086523,306.161,-6.0874825,7.545253,SIT
3294328800000.0,2.326160430908203,1.2801986932754517,1.0971736907958984,9.39604377746582,-0.02530522644519806,-0.014355333500000001,0.010690141499999998,306.16238,-6.102595,7.5417724,SIT
3294334000000.0,2.3311872482299805,1.2793246507644653,1.0987684726715088,9.393640518188477,-0.02514488808810711,-0.011911871999999999,0.007330383,306.166,-6.116153700000001,7.5380077000000005,SIT
3294339000000.0,2.336183547973633,1.2786668539047241,1.1001651287078857,9.390969276428223,-0.024667546153068542,-0.013133603,0.013133603,306.16092000000003,-6.1350207,7.536834,SIT
3294344000000.0,2.3411788940429688,1.2782337665557861,1.1013609170913696,9.387998580932617,-0.02457374520599842,-0.011911871999999999,0.0067195175,306.16037,-6.149744,7.533826400000001,SIT
3294349000000.0,2.3461737632751465,1.2780717611312866,1.1024589538574219,9.384896278381348,-0.024696549400687218,-0.015271631,0.017104227,306.1542,-6.1647277,7.5324845,SIT
3294354000000.0,2.351170778274536,1.2786473035812378,1.1042274236679077,9.382930755615234,-0.02469886653125286,-0.013744468000000001,0.014966198,306.15344,-6.179841000000001,7.528881,SIT
3294359000000.0,2.356180429458618,1.2799038887023926,1.106671690940857,9.382046699523926,-0.02510799467563629,-0.009468411,0.012217305,306.14825,-6.191161,7.531764,SIT
3294364000000.0,2.361180543899536,1.2808506488800049,1.109957218170166,9.381452560424805,-0.025153495371341705,-0.009162978,0.01038471,306.14367999999996,-6.2066703,7.5351777,SIT
3294369000000.0,2.3661882877349854,1.2814968824386597,1.1140851974487305,9.381148338317871,-0.0254895631223917,-0.012217305,0.01038471,306.13998,-6.2178583,7.5393977,SIT
3294374000000.0,2.371184825897217,1.2826069593429565,1.1174949407577515,9.381109237670898,-0.025937939062714577,0.002443461,0.01282817,306.1357,-6.2312627,7.538383500000001,SIT
3294379000000.0,2.37619686126709,1.2842340469360352,1.1202211380004883,9.381316184997559,-0.026525193825364113,-0.009468411,0.01282817,306.13446,-6.2484875,7.546739,SIT
3294384000000.0,2.3811933994293213,1.2866536378860474,1.1230218410491943,9.381292343139648,-0.02714626118540764,-0.0009162978999999999,0.013439035,306.13138,-6.264911,7.545127000000001,SIT
3294389000000.0,2.386187791824341,1.2898668050765991,1.125903844833374,9.381038665771484,-0.027929559350013733,-0.00030543262000000003,0.01282817,306.12775,-6.279886,7.5537133,SIT
3294394000000.0,2.391183376312256,1.2931567430496216,1.1284064054489136,9.381159782409668,-0.028345566242933273,0.004276057,0.014049901000000002,306.12317,-6.2966924,7.558590400000001,SIT
3294399000000.0,2.39617919921875,1.2963550090789795,1.1304410696029663,9.381776809692383,-0.029097504913806915,-0.0033597588,0.01282817,306.11996,-6.308473,7.566472999999999,SIT
3294404000000.0,2.401186466217041,1.299470067024231,1.1320185661315918,9.38288402557373,-0.030346522107720375,-0.00580322,0.007330383,306.11734,-6.3199024,7.5731473,SIT
3294409000000.0,2.406181573867798,1.3024990558624268,1.1331920623779297,9.384411811828613,-0.03108948841691017,0.00030543262000000003,0.01740966,306.1107,-6.3336744000000005,7.579754400000001,SIT
3294414000000.0,2.411179304122925,1.3054509162902832,1.1339657306671143,9.386364936828613,-0.03172774985432625,-0.004581489,0.013439035,306.11646,-6.339046,7.589555000000001,SIT
3294419000000.0,2.416175603866577,1.3083287477493286,1.134365439414978,9.388712882995605,-0.0325436033308506,-0.0033597588,0.015882496,306.1171,-6.3444533,7.5961704,SIT
3294424000000.0,2.421175718307495,1.3116377592086792,1.13408625125885,9.390521049499512,-0.03341364115476608,0.011301007,0.016798794,306.11397999999997,-6.3542414,7.6000648,SIT
3294429000000.0,2.4261746406555176,1.3155428171157837,1.133049488067627,9.391460418701172,-0.03449774906039238,0.0125227375,0.02076942,306.10974,-6.3615146,7.6073747,SIT
3294434000000.0,2.4311704635620117,1.3205593824386597,1.132056474685669,9.392711639404297,-0.03501948341727257,0.004886922,0.017104227,306.11356,-6.360648599999999,7.610581,SIT
3294439000000.0,2.436169147491455,1.326855182647705,1.1313741207122803,9.394669532775879,-0.0353018082678318,0.0070249503,0.018020526000000002,306.11447000000004,-6.356682,7.610939999999999,SIT
3294443900000.0,2.4411654472351074,1.3325690031051636,1.130519151687622,9.396720886230469,-0.035699307918548584,0.003970624,0.019242255,306.11554,-6.355631,7.624171700000001,SIT
3294448800000.0,2.4461636543273926,1.3370991945266724,1.1293330192565918,9.398662567138672,-0.035994235426187515,0.008246681,0.026267206,306.11426,-6.3565187000000005,7.6345696,SIT
3294453800000.0,2.4511611461639404,1.3405165672302246,1.1278367042541504,9.400500297546387,-0.03648504987359047,0.014966198,0.023518313,306.11417,-6.354936599999999,7.6481075,SIT
3294458800000.0,2.456157922744751,1.342880368232727,1.1260466575622559,9.402240753173828,-0.036298613995313644,0.01038471,0.019242255,306.11267000000004,-6.358112,7.663413,SIT
3294463800000.0,2.4611573219299316,1.3444762229919434,1.1237207651138306,9.404054641723633,-0.03659415617585182,0.014660766,0.020158553,306.10992000000005,-6.354069,7.674030999999999,SIT
3294468800000.0,2.4661552906036377,1.3454824686050415,1.1207619905471802,9.406023979187012,-0.03715066239237785,0.006414085,0.027488936000000002,306.1071,-6.354337999999999,7.689207000000001,SIT
3294473700000.0,2.471153497695923,1.3460168838500977,1.1174507141113281,9.407746315002441,-0.03774262219667435,0.0067195175,0.03176499,306.10492,-6.3521886,7.696234,SIT
3294478700000.0,2.476152181625366,1.3461546897888184,1.113947868347168,9.409008026123047,-0.037733327597379684,0.016798794,0.026572637000000003,306.1033,-6.352069999999999,7.702503699999999,SIT
3294483700000.0,2.4811503887176514,1.3459184169769287,1.1102648973464966,9.409835815429688,-0.037789639085531235,0.016798794,0.021380282999999996,306.09995,-6.3460474,7.7106056,SIT
3294488700000.0,2.4861485958099365,1.3453271389007568,1.1064106225967407,9.410252571105957,-0.03763134405016899,0.0125227375,0.025045475,306.09533999999996,-6.344418,7.717048599999999,SIT
3294493700000.0,2.4911458492279053,1.3446131944656372,1.1023660898208618,9.410170555114746,-0.03744892776012421,0.012217305,0.025045475,306.09317000000004,-6.341878400000001,7.721957700000001,SIT
3294498700000.0,2.496145248413086,1.3440241813659668,1.0981030464172363,9.40948486328125,-0.03745528310537338,0.008857545999999999,0.0290161,306.08902,-6.339043,7.7290387,SIT
3294503600000.0,2.50114369392395,1.3435524702072144,1.0936378240585327,9.408234596252441,-0.03715203329920769,0.008857545999999999,0.026572637000000003,306.09826,-6.33521075,7.73641345,SIT
3294508600000.0,2.506141185760498,1.3431917428970337,1.0889812707901,9.406450271606445,-0.03658822923898697,-0.0015271631,0.024740042,306.1075,-6.3313785000000005,7.7437882,SIT
3294513900000.0,2.5111424922943115,1.3429375886917114,1.0841361284255981,9.404150009155273,-0.03615213558077812,0.008552114,0.026572637000000003,306.12207,-6.3191440000000005,7.753545,SIT
3294518800000.0,2.516141414642334,1.3427823781967163,1.0791219472885132,9.401373863220215,-0.035836946219205856,0.004581489,0.022907447,306.13974,-6.3107120000000005,7.7694077,SIT
3294523800000.0,2.5211400985717773,1.3429083824157715,1.0746493339538574,9.398825645446777,-0.035587385296821594,-0.0021380284,0.01863139,306.15308,-6.303438,7.7814684000000005,SIT
3294528800000.0,2.526139974594116,1.3434557914733887,1.0712714195251465,9.397054672241211,-0.03535112366080284,0.0036651915999999997,0.018936822,306.1655,-6.2961373,7.7907305,SIT
3294533800000.0,2.5311357975006104,1.3440507650375366,1.0688961744308472,9.396021842956543,-0.03530650585889816,0.004581489,0.022296581,306.17578,-6.2842627,7.8049116,SIT
3294538800000.0,2.536134719848633,1.3426344394683838,1.0673898458480835,9.39578628540039,-0.034873608499765396,0.0033597588,0.024129177,306.1859,-6.275805,7.817601,SIT
3294543700000.0,2.541135549545288,1.3394516706466675,1.0666671991348267,9.396225929260254,-0.03426845371723175,0.006414085,0.016493361,306.20078,-6.2696195,7.83189,SIT
3294548700000.0,2.546135187149048,1.3361774682998657,1.066244125366211,9.396381378173828,-0.03387460112571716,-0.0015271631,0.014049901000000002,306.21367999999995,-6.263428,7.8493433,SIT
3294553700000.0,2.5511362552642822,1.332814335823059,1.066106915473938,9.396265029907227,-0.03330640867352486,0.0030543262,0.012217305,306.2312,-6.264342299999999,7.855514500000001,SIT
3294558700000.0,2.5561342239379883,1.3293713331222534,1.066236138343811,9.395895957946777,-0.03280105069279671,0.002443461,0.017104227,306.24756,-6.263046,7.8651485,SIT
3294563700000.0,2.5611352920532227,1.3261314630508423,1.066386103630066,9.395613670349121,-0.03224124014377594,0.0036651915999999997,0.022296581,306.2653,-6.260446,7.8698716,SIT
3294568600000.0,2.566134452819824,1.324350118637085,1.0654994249343872,9.396889686584473,-0.03179264813661575,0.005192355,0.009773844,306.28635,-6.2575199999999995,7.874024,SIT
3294573600000.0,2.5711333751678467,1.3237687349319458,1.0639373064041138,9.399357795715332,-0.03123774379491806,0.0012217305,0.011911871999999999,306.30295,-6.257611799999999,7.8782179999999995,SIT
3294578600000.0,2.5761330127716064,1.323590874671936,1.0629550218582153,9.40181827545166,-0.03094029612839222,0.00061086525,0.015577064,306.3222,-6.2559643,7.880487,SIT
3294583800000.0,2.581151008605957,1.3238195180892944,1.0625545978546143,9.404280662536621,-0.030414538457989693,0.0015271631,0.016798794,306.33554,-6.258934,7.892206699999999,SIT
3294589000000.0,2.5861759185791016,1.3244184255599976,1.062685489654541,9.406739234924316,-0.029981909319758415,0.00030543262000000003,0.008246681,306.35042999999996,-6.2593136,7.9040527,SIT
3294594000000.0,2.5911717414855957,1.3252689838409424,1.0632739067077637,9.409148216247559,-0.029149126261472702,-0.0012217305,0.0030543262,306.3637,-6.263399,7.915422,SIT
3294599000000.0,2.5961694717407227,1.3258211612701416,1.0645902156829834,9.411175727844238,-0.02855605259537697,0.004581489,0.013133603,306.3745,-6.2635846,7.9248204,SIT
3294604000000.0,2.6011717319488525,1.3261438608169556,1.0666043758392334,9.412708282470703,-0.028596846386790276,0.00061086525,0.013744468000000001,306.3894,-6.2615050000000005,7.929869,SIT
3294609000000.0,2.606168031692505,1.3269509077072144,1.0692634582519531,9.412152290344238,-0.028244810178875923,0.004886922,0.008552114,306.4024,-6.2635955999999995,7.9309144,SIT
3294614000000.0,2.6111738681793213,1.3281724452972412,1.0725523233413696,9.409723281860352,-0.028171973302960396,0.0009162978999999999,0.010690141499999998,306.41785,-6.2578073,7.9321446,SIT
3294619000000.0,2.61617112159729,1.3290835618972778,1.0761566162109375,9.407669067382812,-0.028233235701918602,-0.006414085,0.010690141499999998,306.43503,-6.2552876,7.93285,SIT
3294624000000.0,2.6211767196655273,1.329686164855957,1.0800405740737915,9.405974388122559,-0.028649335727095604,-0.0070249503,0.009468411,306.44937000000004,-6.2556595999999995,7.935150999999999,SIT
3294629000000.0,2.6261751651763916,1.330024003982544,1.0836012363433838,9.404486656188965,-0.028603771701455116,0.002443461,0.014049901000000002,306.46167,-6.259410400000001,7.9366536,SIT
3294634000000.0,2.631171703338623,1.3301068544387817,1.0868536233901978,9.403196334838867,-0.028300199657678604,-0.0015271631,0.011301007,306.47778,-6.262443,7.9405779999999995,SIT
3294639000000.0,2.636168956756592,1.3299460411071777,1.089812994003296,9.402094841003418,-0.02812674641609192,-0.007941248,0.010079277,306.49167,-6.2655864,7.9426103,SIT
3294644000000.0,2.641166925430298,1.329554557800293,1.092495083808899,9.401171684265137,-0.02822297438979149,-0.0015271631,0.015882496,306.50378,-6.269132,7.942133999999999,SIT
3294648900000.0,2.646162986755371,1.3297266960144043,1.0963985919952393,9.400920867919922,-0.028362905606627464,0.0009162978999999999,0.013439035,306.51552999999996,-6.27554,7.9439964000000005,SIT
3294653800000.0,2.6511590480804443,1.3306646347045898,1.1019022464752197,9.401457786560059,-0.028820926323533058,-0.00030543262000000003,0.014966198,306.5242,-6.2786345,7.9452996,SIT
3294659000000.0,2.6561968326568604,1.3309941291809082,1.1077255010604858,9.402365684509277,-0.02861972153186798,0.00030543262000000003,0.01985312,306.5355,-6.283187,7.943086999999999,SIT
3294664000000.0,2.66119122505188,1.3306676149368286,1.1134512424468994,9.403438568115234,-0.028705954551696777,0.0076358155,0.016798794,306.54822,-6.281536,7.939109299999999,SIT
3294669000000.0,2.6661853790283203,1.3299885988235474,1.1187341213226318,9.403728485107422,-0.02942240983247757,0.002443461,0.01740966,306.55682,-6.288679599999999,7.939423,SIT
3294674000000.0,2.6711809635162354,1.329089641571045,1.1234793663024902,9.402978897094727,-0.029921632260084152,-0.0021380284,0.015271631,306.5667,-6.2987504,7.9373302,SIT
3294679000000.0,2.676175832748413,1.328762412071228,1.1277191638946533,9.402229309082031,-0.03006870113313198,0.008552114,0.014355333500000001,306.57697,-6.3073573,7.9301580000000005,SIT
3294684000000.0,2.6811728477478027,1.3292169570922852,1.131478190422058,9.401774406433105,-0.03037070669233799,0.01160644,0.014966198,306.58762,-6.3142266,7.9264603000000005,SIT
3294689000000.0,2.686168909072876,1.3300161361694336,1.1350675821304321,9.401312828063965,-0.030689172446727753,0.00580322,0.014049901000000002,306.5987,-6.3231163,7.922078,SIT
3294694000000.0,2.69116473197937,1.3310173749923706,1.1385880708694458,9.40075397491455,-0.031137162819504738,0.006414085,0.009468411,306.61023,-6.3305435,7.915042,SIT
3294699000000.0,2.6961610317230225,1.3322104215621948,1.1420434713363647,9.400102615356445,-0.031772881746292114,0.014355333500000001,0.016187929,306.6173,-6.335532700000001,7.910117999999999,SIT
3294704000000.0,2.7011587619781494,1.3335860967636108,1.1454378366470337,9.399362564086914,-0.03204917535185814,0.015271631,0.015577064,306.6279,-6.343019,7.906677,SIT
3294709000000.0,2.70615553855896,1.335151195526123,1.1488637924194336,9.39796257019043,-0.032538630068302155,0.0125227375,0.012217305,306.62537000000003,-6.3470379999999995,7.899361999999999,SIT
3294714000000.0,2.711151123046875,1.3369086980819702,1.1523830890655518,9.395533561706543,-0.032839223742485046,0.014049901000000002,0.015271631,306.6212,-6.354472,7.8910284,SIT
3294718900000.0,2.7161450386047363,1.3391896486282349,1.1556053161621094,9.392400741577148,-0.03354701027274132,0.016493361,0.017715093,306.6199,-6.360742,7.883469,SIT
3294723800000.0,2.7211389541625977,1.3420909643173218,1.158408522605896,9.388691902160645,-0.03436357155442238,0.016187929,0.015577064,306.61926,-6.369185400000001,7.876432,SIT
3294728800000.0,2.72613525390625,1.3443713188171387,1.161158561706543,9.385825157165527,-0.03502267599105835,0.013439035,0.019547688,306.61285,-6.376692,7.867058,SIT
3294733800000.0,2.731130361557007,1.3454883098602295,1.164022445678711,9.384413719177246,-0.035597823560237885,0.009773844,0.016493361,306.60938,-6.383278,7.858064,SIT
3294738800000.0,2.7361252307891846,1.3464395999908447,1.1668059825897217,9.383529663085938,-0.0366794727742672,0.01160644,0.02321288,306.60083,-6.3856,7.8515053,SIT
3294743800000.0,2.741121768951416,1.347594976425171,1.1694412231445312,9.382820129394531,-0.03729654476046562,0.018936822,0.019547688,306.5963,-6.3937473,7.8442445,SIT
3294748700000.0,2.7461183071136475,1.3489421606063843,1.17193603515625,9.382275581359863,-0.03783189877867699,0.019547688,0.018325957,306.58768,-6.3956513,7.8300962,SIT
3294753700000.0,2.7511138916015625,1.3504698276519775,1.1742979288101196,9.38188648223877,-0.03815967217087746,0.022602014,0.02107485,306.579,-6.400475,7.813764999999999,SIT
3294758700000.0,2.7561089992523193,1.3518273830413818,1.1763678789138794,9.381722450256348,-0.03908851370215416,0.01160644,0.022296581,306.56998,-6.4062285,7.806317999999999,SIT
3294763700000.0,2.7611098289489746,1.352867603302002,1.1780824661254883,9.38181209564209,-0.03991902247071266,0.01160644,0.01740966,306.5618,-6.4164166,7.7952323,SIT
3294768700000.0,2.7661101818084717,1.3536159992218018,1.1791951656341553,9.381722450256348,-0.04064016416668892,0.014966198,0.019547688,306.55124,-6.422448999999999,7.7881565,SIT
3294773600000.0,2.7711100578308105,1.3540904521942139,1.1795464754104614,9.381169319152832,-0.04146936908364296,0.017715093,0.02443461,306.5415,-6.427512,7.781440299999999,SIT
3294778600000.0,2.7761096954345703,1.3538457155227661,1.1792393922805786,9.380477905273438,-0.04188000410795212,0.018325957,0.02687807,306.53207000000003,-6.439125499999999,7.7795815,SIT
3294783600000.0,2.7811105251312256,1.3522388935089111,1.178398609161377,9.380098342895508,-0.042203646153211594,0.015882496,0.02321288,306.52325,-6.448055999999999,7.7778925999999995,SIT
3294788800000.0,2.7861111164093018,1.349886417388916,1.1771446466445923,9.38021183013916,-0.04220077022910118,0.015577064,0.02565634,306.51108,-6.457549,7.7758455,SIT
3294793800000.0,2.7911107540130615,1.3472766876220703,1.175574779510498,9.38095760345459,-0.04286542162299156,0.016798794,0.028099801,306.5003,-6.462030400000001,7.774037400000001,SIT
3294798800000.0,2.796109199523926,1.344423770904541,1.1737064123153687,9.38230037689209,-0.04349464923143387,0.016187929,0.02565634,306.49097,-6.4707446,7.769791000000001,SIT
3294803800000.0,2.801109790802002,1.3413360118865967,1.1715506315231323,9.38421630859375,-0.04415545240044594,0.014355333500000001,0.026572637000000003,306.4803,-6.4751334,7.765928999999999,SIT
3294808800000.0,2.806107759475708,1.3377689123153687,1.1690012216567993,9.386246681213379,-0.0450577549636364,0.014660766,0.03023783,306.47292999999996,-6.4693427,7.753342,SIT
3294813700000.0,2.81111216545105,1.3335059881210327,1.1659549474716187,9.388041496276855,-0.04597708210349083,0.010995574,0.026572637000000003,306.46777000000003,-6.4647393,7.742646000000001,SIT
3294818700000.0,2.816110849380493,1.3286229372024536,1.1624656915664673,9.389619827270508,-0.046993911266326904,0.007941248,0.02443461,306.45758,-6.4589357000000005,7.731552000000001,SIT
3294823700000.0,2.8211112022399902,1.3231297731399536,1.1585407257080078,9.390990257263184,-0.04772866889834404,0.013439035,0.020158553,306.44912999999997,-6.455144000000001,7.719307400000001,SIT
3294828700000.0,2.8261096477508545,1.3176462650299072,1.1541528701782227,9.392375946044922,-0.048407990485429764,0.018020526000000002,0.024740042,306.43906,-6.449343700000001,7.7088017,SIT
3294833700000.0,2.8311104774475098,1.3129644393920898,1.1492348909378052,9.39406967163086,-0.04867672920227051,0.013439035,0.027794369,306.43097,-6.447018,7.699567299999999,SIT
3294838700000.0,2.8361096382141113,1.3090341091156006,1.1438260078430176,9.396049499511719,-0.04849166050553322,0.011301007,0.025350908,306.4228,-6.4426947,7.685051,SIT
3294843600000.0,2.841109275817871,1.305818796157837,1.1379468441009521,9.398303031921387,-0.04844667389988899,0.0015271631,0.021380282999999996,306.4148,-6.4374027,7.674560499999999,SIT
3294848600000.0,2.8461079597473145,1.3031842708587646,1.1314271688461304,9.400282859802246,-0.04825758561491966,0.01282817,0.02687807,306.41547,-6.430487599999999,7.6618867,SIT
3294853600000.0,2.8511080741882324,1.300948143005371,1.123964548110962,9.401124000549316,-0.048599451780319214,0.014355333500000001,0.029932396,306.41852,-6.419870400000001,7.654795599999999,SIT
3294858600000.0,2.8561062812805176,1.2991615533828735,1.1159484386444092,9.401124954223633,-0.048402223736047745,0.007330383,0.019547688,306.41986,-6.410524,7.650569,SIT
3294863800000.0,2.8611085414886475,1.2979274988174438,1.1079021692276,9.400668144226074,-0.04790623486042023,0.014966198,0.02107485,306.41638,-6.397158,7.64249,SIT
3294868800000.0,2.8661062717437744,1.2971315383911133,1.0999284982681274,9.399815559387207,-0.047452956438064575,0.014049901000000002,0.017104227,306.41544,-6.381954,7.640384,SIT
3294873800000.0,2.8711066246032715,1.296245813369751,1.0926440954208374,9.398743629455566,-0.047447048127651215,0.0030543262,0.015882496,306.41333,-6.3664613,7.639317999999999,SIT
3294878800000.0,2.8761138916015625,1.295272707939148,1.0860170125961304,9.397459983825684,-0.04701824113726616,0.004276057,0.019242255,306.40918,-6.3539476,7.6370892999999995,SIT
3294883700000.0,2.881114959716797,1.2942231893539429,1.0799996852874756,9.395988464355469,-0.047002945095300674,0.011301007,0.018936822,306.40656,-6.3354897,7.636230499999999,SIT
3294888700000.0,2.886113405227661,1.2931005954742432,1.0745313167572021,9.394367218017578,-0.046793133020401,0.014660766,0.013133603,306.4014,-6.3214445,7.6316066,SIT
3294893700000.0,2.891112804412842,1.291910171508789,1.0694820880889893,9.392704010009766,-0.046480562537908554,0.008857545999999999,0.014049901000000002,306.3945,-6.3051176,7.6280804,SIT
3294898700000.0,2.8961122035980225,1.2906558513641357,1.0648293495178223,9.391002655029297,-0.046607859432697296,0.003970624,0.011301007,306.39862,-6.286484,7.6243553,SIT
3294903700000.0,2.9011127948760986,1.2893404960632324,1.0605523586273193,9.389264106750488,-0.04643538221716881,0.006414085,0.013744468000000001,306.40082,-6.272545,7.620546000000001,SIT
3294908600000.0,2.9061131477355957,1.2882328033447266,1.0567189455032349,9.387638092041016,-0.04614187777042389,0.006414085,0.019547688,306.4029,-6.256011,7.6189575,SIT
3294914000000.0,2.911149501800537,1.2883405685424805,1.0536680221557617,9.386676788330078,-0.04586401581764221,0.006414085,0.013744468000000001,306.40735,-6.241182299999999,7.6165113,SIT
3294919000000.0,2.9161531925201416,1.288778305053711,1.0510417222976685,9.386280059814453,-0.04599161818623543,0.008857545999999999,0.014966198,306.4087,-6.2259507,7.613109,SIT
3294923800000.0,2.9211530685424805,1.2879434823989868,1.0483055114746094,9.386653900146484,-0.045770592987537384,0.01160644,0.010690141499999998,306.41315,-6.2154717,7.609395,SIT
3294928800000.0,2.926151990890503,1.2863173484802246,1.045619249343872,9.387702941894531,-0.045626457780599594,0.014355333500000001,0.011911871999999999,306.41522000000003,-6.201667,7.607524000000001,SIT
3294933800000.0,2.9311535358428955,1.2854907512664795,1.0435514450073242,9.389171600341797,-0.045701608061790466,0.0067195175,0.014660766,306.41818,-6.189432599999999,7.607883,SIT
3294938800000.0,2.936159610748291,1.285393238067627,1.0420275926589966,9.390975952148438,-0.04556114971637726,0.013744468000000001,0.019547688,306.41402999999997,-6.1798972999999995,7.5955224,SIT
3294943800000.0,2.9411590099334717,1.285555362701416,1.0404577255249023,9.392302513122559,-0.04563978314399719,0.008857545999999999,0.014660766,306.41257,-6.1676335,7.588917299999999,SIT
3294948800000.0,2.946162462234497,1.2859735488891602,1.0388391017913818,9.393160820007324,-0.04600721597671509,0.013133603,0.013133603,306.40833,-6.1570535,7.579803999999999,SIT
3294953700000.0,2.951162099838257,1.2866266965866089,1.0371781587600708,9.393588066101074,-0.04576908424496651,0.013133603,0.008552114,306.40674,-6.1507144,7.573383,SIT
3294958700000.0,2.956160068511963,1.2875730991363525,1.0355229377746582,9.393684387207031,-0.04549480974674225,0.0033597588,0.013133603,306.4033,-6.137441,7.565970399999999,SIT
3294963700000.0,2.961160182952881,1.2892580032348633,1.0341813564300537,9.394001007080078,-0.0456746406853199,0.005497787,0.01282817,306.40225,-6.1254800000000005,7.555234,SIT
3294968700000.0,2.966160297393799,1.2916359901428223,1.033134937286377,9.394524574279785,-0.045991383492946625,0.007330383,0.013439035,306.39896,-6.114535299999999,7.549607000000001,SIT
3294973700000.0,2.971160650253296,1.2946709394454956,1.0323681831359863,9.395244598388672,-0.04594942182302475,0.003970624,0.013744468000000001,306.39594,-6.1042886,7.545081,SIT
3294978600000.0,2.9761602878570557,1.2983253002166748,1.0318654775619507,9.396148681640625,-0.04556787386536598,0.014049901000000002,0.012217305,306.39282000000003,-6.0937257,7.536414,SIT
3294984000000.0,2.9811959266662598,1.3026260137557983,1.0321626663208008,9.396422386169434,-0.04528804495930672,0.0076358155,0.008552114,306.3971,-6.0817323,7.536977,SIT
3294988900000.0,2.986191987991333,1.307311773300171,1.0332629680633545,9.395862579345703,-0.045283567160367966,0.014049901000000002,0.012217305,306.3989,-6.0707580000000005,7.5313063,SIT
3294993800000.0,2.9911868572235107,1.312041997909546,1.034734845161438,9.394902229309082,-0.04488867148756981,0.008552114,0.009162978,306.4007,-6.069442,7.540156,SIT
3294998800000.0,2.9961841106414795,1.3162490129470825,1.0358572006225586,9.394264221191406,-0.044205550104379654,0.015882496,0.0076358155,306.40036000000003,-6.0662346,7.543548599999999,SIT
3295003800000.0,3.001180648803711,1.320243000984192,1.0374759435653687,9.393512725830078,-0.04388438165187836,0.003970624,0.008857545999999999,306.40167,-6.0672073,7.5584416,SIT
3295008800000.0,3.006176710128784,1.3242790699005127,1.040282964706421,9.392291069030762,-0.04362916201353073,0.017715093,0.011911871999999999,306.4018,-6.071146,7.563657000000001,SIT
3295013800000.0,3.011173725128174,1.3283534049987793,1.0428659915924072,9.391298294067383,-0.04315965995192528,0.013744468000000001,0.007941248,306.40033,-6.0720019999999995,7.570081699999999,SIT
3295018700000.0,3.0161709785461426,1.3324601650238037,1.0440635681152344,9.391107559204102,-0.04312211275100708,0.015882496,0.010690141499999998,306.3955,-6.0688505,7.5711555,SIT
3295023700000.0,3.0211682319641113,1.336598515510559,1.0445637702941895,9.391430854797363,-0.042500581592321396,0.02321288,0.009773844,306.39694,-6.0723314,7.568085000000001,SIT
3295028700000.0,3.0261669158935547,1.3407694101333618,1.0450372695922852,9.391989707946777,-0.04238421842455864,0.013133603,0.015882496,306.39599999999996,-6.0677304,7.5697527000000004,SIT
3295033700000.0,3.0311641693115234,1.344968557357788,1.045485496520996,9.392769813537598,-0.04168807342648506,0.015882496,0.009468411,306.39575,-6.0681133,7.566796000000001,SIT
3295038700000.0,3.0361618995666504,1.349196195602417,1.0459098815917969,9.393760681152344,-0.04120807722210884,0.013439035,0.0076358155,306.39294,-6.061659,7.5685587,SIT
3295043600000.0,3.0411579608917236,1.353448748588562,1.046311616897583,9.394948959350586,-0.040835049003362656,0.02076942,0.005192355,306.39178,-6.0591870000000005,7.566588,SIT
3295048600000.0,3.046156406402588,1.3577287197113037,1.0466920137405396,9.396327018737793,-0.0406121164560318,0.01985312,0.0061086523,306.3905,-6.0555449999999995,7.567735000000001,SIT
3295054000000.0,3.0511703491210938,1.3618683815002441,1.047289490699768,9.397541999816895,-0.04001041129231453,0.009162978,0.01038471,306.39477999999997,-6.055168,7.575538000000001,SIT
3295058900000.0,3.0561673641204834,1.3656697273254395,1.0483262538909912,9.398221015930176,-0.039896536618471146,0.022602014,0.01740966,306.39716,-6.04957,7.5767,SIT
3295063800000.0,3.0611629486083984,1.3691439628601074,1.0498058795928955,9.39836597442627,-0.039495740085840225,0.024740042,0.014660766,306.40082,-6.0495653,7.5855255,SIT
3295068800000.0,3.0661611557006836,1.3723065853118896,1.0517126321792603,9.39799690246582,-0.03936046361923218,0.024129177,0.01160644,306.4021,-6.044141000000001,7.591371499999999,SIT
3295073800000.0,3.071155309677124,1.3751376867294312,1.0539273023605347,9.397439956665039,-0.03908589854836464,0.020463986,0.006414085,306.4048,-6.0426264000000005,7.597207000000001,SIT
3295078800000.0,3.0761544704437256,1.3775678873062134,1.0562740564346313,9.397287368774414,-0.039005015045404434,0.016493361,0.013439035,306.40472,-6.037849,7.603459,SIT
3295083800000.0,3.0811498165130615,1.3796262741088867,1.0587379932403564,9.397506713867188,-0.038700561970472336,0.020463986,0.017104227,306.40308,-6.043157,7.6059703999999995,SIT
3295088700000.0,3.086148262023926,1.3813265562057495,1.0613189935684204,9.398086547851562,-0.03893320634961128,0.021380282999999996,0.013133603,306.40182000000004,-6.0434375,7.610346000000001,SIT
3295093700000.0,3.091144561767578,1.3826448917388916,1.0639158487319946,9.39888858795166,-0.038893017917871475,0.025350908,0.013439035,306.40506,-6.051486,7.6222395999999994,SIT
3295098700000.0,3.096143960952759,1.3833777904510498,1.0661166906356812,9.39939022064209,-0.038806136697530746,0.02107485,0.014660766,306.40927,-6.055621599999999,7.63571,SIT
3295103700000.0,3.1011409759521484,1.383554220199585,1.0681180953979492,9.399658203125,-0.03854483738541603,0.016493361,0.016187929,306.4145,-6.063410299999999,7.645859,SIT
3295108700000.0,3.1061389446258545,1.3831416368484497,1.0707083940505981,9.399911880493164,-0.03815096616744995,0.024129177,0.013133603,306.42032,-6.071214,7.653287400000001,SIT
3295113600000.0,3.111138343811035,1.3821706771850586,1.073857069015503,9.400152206420898,-0.03828268498182297,0.016493361,0.008552114,306.42676,-6.075914,7.6649012999999995,SIT
3295118600000.0,3.1161375045776367,1.3806744813919067,1.0775302648544312,9.40038013458252,-0.03819577768445015,0.0125227375,0.009468411,306.43204,-6.0848994,7.6730943,SIT
3295123600000.0,3.1211347579956055,1.3786848783493042,1.081695556640625,9.400595664978027,-0.03783678635954857,0.011301007,0.014355333500000001,306.4375,-6.091429,7.6823535000000005,SIT
3295128800000.0,3.1261355876922607,1.3758208751678467,1.0855937004089355,9.399746894836426,-0.03756203502416611,0.01863139,0.015271631,306.44354,-6.097195,7.68985,SIT
3295133800000.0,3.131133794784546,1.372031569480896,1.0890146493911743,9.397595405578613,-0.03735075891017914,0.014049901000000002,0.009773844,306.45032000000003,-6.1043706,7.7007384000000005,SIT
3295138800000.0,3.1361331939697266,1.3682115077972412,1.0916646718978882,9.395519256591797,-0.03682519495487213,0.01985312,0.011911871999999999,306.44467000000003,-6.1262608,7.701094599999999,SIT
3295143800000.0,3.141129970550537,1.3644713163375854,1.0935548543930054,9.393677711486816,-0.03673457354307175,0.016187929,0.014660766,306.4411,-6.14356,7.7051754,SIT
3295148800000.0,3.146129846572876,1.3608040809631348,1.094712734222412,9.392060279846191,-0.037055715918540955,0.009162978,0.013439035,306.43887,-6.162253,7.706303999999999,SIT
3295153800000.0,3.15112566947937,1.3572092056274414,1.0951933860778809,9.39065170288086,-0.037213247269392014,0.019242255,0.019242255,306.4336,-6.1807894999999995,7.703852,SIT
3295158700000.0,3.1561267375946045,1.3533838987350464,1.0961153507232666,9.388947486877441,-0.03770420700311661,0.020463986,0.016798794,306.43487999999996,-6.1938233,7.707362,SIT
3295163700000.0,3.161125898361206,1.3492791652679443,1.0977129936218262,9.38685131072998,-0.03772951290011406,0.015577064,0.010995574,306.43546000000003,-6.211243,7.709725,SIT
3295168700000.0,3.1661267280578613,1.3454327583312988,1.0991660356521606,9.38481616973877,-0.037834856659173965,0.00030543262000000003,0.012217305,306.4331,-6.219709,7.714967999999999,SIT
3295173700000.0,3.1711251735687256,1.3420413732528687,1.10016667842865,9.383014678955078,-0.037706706672906876,0.016187929,0.014049901000000002,306.43152000000003,-6.232011,7.712459,SIT
3295178700000.0,3.1761274337768555,1.3390865325927734,1.1007304191589355,9.381436347961426,-0.037650492042303085,0.004276057,0.014049901000000002,306.43872000000005,-6.243119200000001,7.722408000000001,SIT
3295183600000.0,3.181126117706299,1.3365379571914673,1.1008907556533813,9.380066871643066,-0.03720661997795105,0.008552114,0.013133603,306.4446,-6.257502,7.723098299999999,SIT
3295188600000.0,3.1861274242401123,1.3343806266784668,1.1014238595962524,9.37915325164795,-0.03758399188518524,0.009773844,0.015577064,306.44998,-6.264755,7.7279015,SIT
3295193900000.0,3.1911284923553467,1.3325917720794678,1.1026891469955444,9.37879467010498,-0.0373389907181263,0.008857545999999999,0.013439035,306.4568,-6.28139,7.7317100000000005,SIT
3295198800000.0,3.1961302757263184,1.3306523561477661,1.103981614112854,9.37962818145752,-0.0371558777987957,0.0076358155,0.01282817,306.45847000000003,-6.2911067,7.7404113,SIT
3295203800000.0,3.2011380195617676,1.3283004760742188,1.1049472093582153,9.381964683532715,-0.036331430077552795,0.0061086523,0.012217305,306.4608,-6.307425,7.7490535000000005,SIT
3295208800000.0,3.2061383724212646,1.325821042060852,1.10585618019104,9.384612083435059,-0.03618573769927025,0.00580322,0.009468411,306.46494,-6.3183875,7.7572308,SIT
3295213800000.0,3.211143732070923,1.3233436346054077,1.106846809387207,9.386987686157227,-0.03647102043032646,0.009773844,0.015577064,306.46667,-6.3330913,7.764522599999999,SIT
3295218800000.0,3.216144323348999,1.3208727836608887,1.10791015625,9.389111518859863,-0.03674110025167465,0.014355333500000001,0.008246681,306.473,-6.3461018,7.769301400000001,SIT
3295223700000.0,3.221144914627075,1.3184059858322144,1.1090444326400757,9.390995025634766,-0.03675262629985809,0.014660766,0.013133603,306.47406,-6.3571324,7.7745194,SIT
3295228700000.0,3.226146936416626,1.3157793283462524,1.110082983970642,9.392568588256836,-0.03697514161467552,0.011911871999999999,0.014049901000000002,306.47412,-6.36875,7.77889,SIT
3295233700000.0,3.2311480045318604,1.312912940979004,1.1109395027160645,9.393804550170898,-0.03773922845721245,0.011301007,0.01282817,306.47336,-6.379303,7.7824855,SIT
