acc_x,acc_y,acc_z,gyro_x,gyro_y,gyro_z,label
0.0,0.0,0.0,0.0,-0.018936822,0.01038471,1
0.0596192479133606,0.2772753834724426,0.05457927659153938,0.0011792394798249006,-0.05100725,-0.025961773,1
0.1967913955450058,0.938416600227356,0.1869015097618103,0.0013221479021012785,-0.09101892,-0.07391469,1
0.3786236941814423,1.853347420692444,0.3735178112983704,0.00043568015098571783,-0.10415252,-0.098043874,1
0.5723171234130859,2.877936601638794,0.5868485569953918,0.0029604276642203327,-0.102319926,-0.09621128,1
0.7532222867012024,3.896161556243897,0.803925633430481,0.009502988308668137,-0.087659165,-0.08002335,1
0.9073396325111388,4.835085868835449,1.009655237197876,0.015759456902742386,-0.08155051,-0.06383542,1
1.02944016456604,5.6599483489990225,1.1962121725082395,0.01963622495532036,-0.06719518,-0.042455133,1
1.1194589138031006,6.362053871154785,1.3610948324203491,0.02055636048316956,-0.07452556,-0.040317107000000005,1
1.1803650856018066,6.947457790374756,1.5047652721405032,0.01791837066411972,-0.090713486,-0.06291912,1
1.2280946969985962,7.428807735443115,1.609757661819458,0.011451404541730879,-0.08796459400000001,-0.04550946,1
1.261518120765686,7.834574699401855,1.6529059410095217,0.003175787162035704,-0.098043874,-0.017715093,1
1.2714548110961914,8.177506446838379,1.6409995555877686,-8.622714085504413e-05,-0.089491755,0.004276057,1
1.2831634283065796,8.465513229370117,1.590599775314331,0.0002527787000872195,-0.040011674,0.03726278,1
1.2864383459091189,8.685800552368164,1.5571885108947754,0.0057646562345325955,-0.015271631,0.020463986,1
1.285230040550232,8.838869094848633,1.585228681564331,0.008775877766311169,-0.1020145,0.0067195175,1
1.3096961975097656,8.96358871459961,1.663673996925354,0.007697252556681633,-0.2773328,0.0021380284,0
1.3451697826385498,9.064814567565918,1.7344588041305542,0.005709553137421608,-0.3652974,0.03726278,0
1.3752660751342771,9.1273775100708,1.7670670747756958,0.003194278106093407,-0.2782491,0.0720821,0
1.3581669330596924,9.157959938049316,1.8130948543548584,-0.0033164855558425192,-0.18784106,0.10781772,0
1.2571343183517456,9.161091804504396,1.9626654386520384,-0.017780305817723274,-0.15424347,0.15118915,0
1.1363763809204102,9.153898239135742,2.1442766189575195,-0.04076636582612991,-0.2012801,0.1872302,0
1.0180228948593142,9.126579284667967,2.285367250442505,-0.06740238517522812,-0.17104226,0.21624629,0
0.9010478854179382,9.067790985107422,2.3665122985839844,-0.09146706014871596,-0.064446285,0.25961772,0
0.7710962295532227,8.97531509399414,2.4053947925567627,-0.11043520271778108,0.0067195175,0.30970868,0
0.6237989664077759,8.823328971862793,2.399613380432129,-0.12159198522567748,0.00061086525,0.37323865,0
0.4664706885814667,8.573832511901855,2.333582162857056,-0.12304338067770006,-0.03940081,0.39736784,0
0.2939217388629913,8.225264549255371,2.1852617263793945,-0.11132369190454484,-0.052534413,0.35735616,0
0.10394825786352158,7.801984786987305,1.9648854732513428,-0.08255147933959961,0.07819075,0.25350907,0
-0.09807900339365004,7.262376308441162,1.8003045320510864,-0.05657142400741578,0.22540927,0.09682214,0
-0.2362421452999115,6.705027580261231,1.9792275428771973,-0.04379046335816384,-0.18661933,-0.110872045,0
-0.18529556691646576,6.348641395568848,2.6392605304718018,-0.014615253545343874,-1.4990633,-0.2846632,0
0.0919087678194046,6.330512523651122,3.4254865646362305,0.01548415794968605,-2.9297097,-0.38698313,0
0.5180466175079346,6.487384796142577,3.8536510467529297,-0.057794928550720215,-3.5549302000000003,-0.09407325,0
0.9276526570320128,6.554826736450195,3.4794273376464844,-0.2485068440437317,-2.7391198,0.17287487,0
1.224115014076233,6.3368186950683585,2.1197896003723145,-0.7549141049385071,0.6942484,-0.43493605,0
1.366937518119812,5.964406490325928,1.075589299201965,-1.262456297874451,1.8365663,-0.7867944,0
1.4463655948638916,5.518726825714111,0.8675153255462646,-1.4266456365585327,0.3213151,-0.77182823,0
1.5611525774002075,5.001053810119629,1.4136978387832642,-1.1456248760223389,-2.89825,-0.5439755000000001,0
1.8667315244674685,4.807594299316406,2.0249152183532715,-0.6762192249298096,-3.209486,0.25442538,0
2.4738545417785645,5.556318759918213,2.2477707862854004,-0.4491788148880005,0.9138544,0.97310835,0
2.714205026626587,6.781954765319824,2.465355634689331,-0.5507317185401917,1.9333885,0.81336707,0
2.3593676090240483,7.887101173400879,2.724611520767212,-0.7600044012069702,0.7974846,0.7180721,0
1.6916646957397459,8.324820518493652,2.7669057846069336,-0.947343111038208,-0.17470746,0.9059132,0
1.182099223136902,8.124025344848633,2.732608795166016,-0.9016121625900269,-0.16432275,0.8536841999999999,0
1.0750383138656616,7.911437034606934,3.078667402267456,-0.6358112692832947,-0.39553526,0.7684685,0
1.3120605945587158,7.983755111694336,3.813122987747192,-0.3856578767299652,-0.37965274,0.81581056,0
1.691137194633484,8.183859825134277,4.60227632522583,-0.2990681827068329,-0.04734206,0.8924741,0
2.065793752670288,8.288839340209961,4.991283416748047,-0.3534049093723297,0.44226643,0.9254609,0
2.464158535003662,8.302177429199219,5.056724548339844,-0.4014955759048462,0.6087272,1.0152581,0
2.891939878463745,8.208975791931152,5.0603227615356445,-0.3731604516506195,0.44348818,1.061073,0
3.196648120880127,7.979353427886963,4.935206890106201,-0.27159664034843445,0.3436117,0.88086766,0
3.3410701751708984,7.6883721351623535,4.586600303649902,-0.20918327569961548,0.07727446,0.56230146,0
3.406517505645752,7.517517566680907,4.098653793334962,-0.23335665464401245,-0.21594086,0.23182335,0
3.571915864944458,8.106681823730469,3.3332972526550293,-0.3231226801872253,-0.42821655,-0.16279559,0
4.1762404441833505,9.215079307556152,2.5738956928253174,-0.4014122486114502,-1.119716,-0.43157628,0
5.189500331878662,10.662310600280762,2.0170814990997314,-0.3479503095149994,-2.3628268,0.11636983,0
5.813127517700195,11.97770881652832,1.7714295387268066,-0.12617981433868408,-3.2965343000000003,0.473726,0
5.783595561981201,13.082283020019533,1.9035996198654173,0.1797836720943451,-3.140458,0.5458081,0
5.8469481468200675,14.224555015563965,3.08492112159729,0.541553795337677,-3.3457088,1.1844677,0
5.595322608947754,15.236881256103516,4.679990291595459,0.5532936453819275,0.03634648,2.2892175,0
4.589395523071289,15.642300605773926,5.262445449829102,0.16922520101070404,0.39584067,1.8585575,0
3.687455654144287,14.789593696594238,4.350172519683838,0.07937725633382797,-2.7207937,1.0888673,0
3.002504587173462,13.424665451049805,3.346215009689331,0.5802634954452515,-3.2449162,0.73792523,0
3.0676076412200928,11.903827667236328,3.117639780044556,1.071160912513733,-1.9007072,1.2592987,0
3.767131567001343,10.18782901763916,3.0505399703979488,1.2074894905090332,0.2275473,1.5378532,0
4.148332118988037,8.661960601806639,2.7965872287750244,1.2562949657440186,0.2125811,1.7302758000000005,0
4.230225086212158,7.459748268127441,2.3260512351989746,1.4058141708374023,-0.96883225,1.8090774,0
4.185429096221924,6.678947925567628,1.7542036771774292,1.66091787815094,-0.016798794,1.817935,0
4.250377655029297,6.2315306663513175,1.6984227895736694,1.8459993600845337,-0.22082779,1.9168952,0
4.524324417114258,6.101180553436278,1.9030174016952517,1.9044415950775144,-0.5723807,2.1493294,0
5.328037738800049,6.507964611053468,1.3879597187042236,1.8398880958557131,-0.6020076999999999,2.5506678,0
6.466379642486572,7.326290607452393,-1.1454533338546753,1.5546667575836182,2.8759537,1.4114041000000002,0
8.441271781921388,8.745376586914062,-3.5719306468963623,1.2228769063949585,0.45937067,-0.43249258,0
10.474041938781738,10.217904090881348,-3.3496556282043457,1.1109246015548706,1.0922271,3.6871827000000006,0
12.200811386108398,9.054220199584961,-1.9629020690917969,1.101105570793152,-1.7950275000000002,1.68385,0
12.58713436126709,7.380531311035156,-0.5471997261047363,1.4917550086975098,-2.7650816000000003,2.3887885,0
10.488680839538574,6.362775802612305,0.8631566762924194,2.2419464588165283,-0.0027488936,5.681047,0
6.988047122955322,5.240170955657959,2.5775294303894043,2.579052448272705,1.1954633,5.7112846,0
3.5269789695739746,3.961607217788696,4.2068538665771475,2.068734169006348,-3.5472944,5.013066,0
0.9748383164405824,2.647198438644409,4.409692764282227,1.412759780883789,-6.4812803,4.9425106,0
-0.8078271746635437,0.5098398327827454,2.3072850704193115,0.9305390119552612,-2.6459627,3.1031954,0
-1.1928658485412598,-2.7029149532318115,-1.025701642036438,0.6966382265090942,0.98899084,-0.8717046999999999,0
-0.10875628888607024,-4.998486518859863,-3.3694653511047363,0.8298349380493164,1.6374242,-3.236975,0
1.5717250108718872,-5.511885166168213,-4.68765926361084,0.9184901714324952,3.2253685,-4.4425173,0
3.996941328048706,-4.166775703430177,-4.302093505859375,0.6226421594619751,2.4242187000000004,-2.9501736000000003,0
6.7257118225097665,-1.3628182411193848,-2.917569875717163,-0.10919448733329773,-0.0018325958,0.014660766,0
7.922268390655518,0.5703729391098022,-3.895788192749024,-0.3221958577632904,-0.37568212,2.1774292,0
7.572810173034668,1.111291527748108,-4.835821628570557,-0.0683441087603569,0.59528816,2.1490240000000003,0
6.035483360290527,0.3402484357357025,-5.544586658477783,0.08799997717142105,0.7825184000000001,1.9807305,0
4.474500179290772,-1.5211145877838137,-5.912564277648926,0.207071989774704,0.48166725,0.84604836,0
3.885708093643189,-3.784395456314087,-5.4378862380981445,0.25887835025787354,0.30818152,-0.73273283,0
4.156172752380371,-5.603304386138916,-4.181820869445802,0.19725513458251956,0.29016098,-2.0690005,0
5.329659461975098,-6.127145767211914,-2.1979284286499023,-0.12966486811637878,-1.4871514,-1.8390098,0
6.9783806800842285,-4.502589702606201,-1.1279590129852295,-0.6350099444389343,-0.3378085,-0.7104363,0
8.29786491394043,-1.5566720962524414,-2.114452838897705,-0.9408884048461914,1.1093313,0.39614612,0
8.855819702148438,0.4690003395080566,-3.42314076423645,-0.7594642043113708,-0.33414328,0.46211955,0
8.917742729187012,0.5190946459770203,-4.099503040313722,-0.42699572443962097,0.049785517,-0.79901177,0
9.11209487915039,-0.5002813935279846,-4.029688358306885,-0.36135193705558777,-0.7779369,-1.2968669,0
9.521702766418457,-2.004801034927368,-3.570398330688477,-0.433614581823349,-1.1078042,-1.1585059,0
9.889732360839844,-2.923369646072388,-3.3602559566497803,-0.5087702274322511,-1.0558805,-0.61391956,0
9.919844627380373,-2.759496688842773,-3.5333921909332275,-0.5147557258605957,-0.9786061,0.115453534,0
9.481616973876953,-1.878235101699829,-3.89790415763855,-0.4041593074798584,-0.96883225,0.267559,0
8.850337028503418,-0.4835555255413056,-4.147289752960205,-0.21489734947681427,-0.63071835,0.23365596,0
8.341517448425293,0.9549686908721924,-4.043686389923097,-0.021323857828974724,-0.4859433,-0.13255776,0
8.070719718933105,1.8501579761505127,-3.799281597137451,0.11913798004388808,-0.23671028,-0.5384777,0
8.262709617614746,1.835305094718933,-3.720088243484497,0.20678630471229556,0.100792766,-0.6740898,0
8.780764579772951,1.1523540019989014,-3.775838613510132,0.2700476944446564,0.106901415,-0.55863625,0
9.086827278137207,0.4192340970039368,-3.787184000015259,0.2807993292808533,-0.37995818,-0.54183745,0
9.182469367980957,-0.07072387635707855,-3.8073961734771733,0.2238459587097168,-0.5180137,-0.5879578000000001,0
9.183895111083984,-0.012753119692206384,-3.985540151596069,0.1375567764043808,-0.66889745,-0.54733527,0
9.197900772094727,0.4512247443199158,-4.211789131164552,0.08726462721824646,-0.72356987,-0.39858958,0
9.106279373168944,1.041075348854065,-4.318583965301514,0.08603203296661377,-0.6722571999999999,-0.32375857,0
8.9318208694458,1.5620027780532837,-4.2882776260375985,0.11326155811548233,-0.6020076999999999,-0.3811799,0
8.831436157226562,1.8608555793762207,-4.239016532897948,0.14884023368358612,-0.5012149,-0.37201694,0
8.781817436218263,1.9219536781311035,-4.2773423194885245,0.16694581508636475,-0.37110063,-0.2751948,0
8.689314842224121,1.824747323989868,-4.395335674285889,0.16260521113872528,-0.24740042,-0.13103059,0
8.541655540466309,1.6338340044021606,-4.48128604888916,0.15480735898017886,-0.13683382,-0.019242255,0
8.41423511505127,1.4207500219345093,-4.481729507446289,0.1374397873878479,-0.054367006,-0.023518313,0
8.396759033203125,1.2843143939971924,-4.480360507965088,0.10135479271411896,0.020463986,-0.009162978,0
8.476706504821777,1.2602033615112305,-4.529387950897217,0.05793222412467002,0.054061573,-0.019547688,0
8.601065635681152,1.3512927293777466,-4.5915727615356445,0.02351371198892593,-0.0143553335,-0.038789943,0
8.709856986999513,1.5094857215881348,-4.666942596435547,-0.001876286813057959,-0.0720821,-0.056199603,0
8.748268127441406,1.6597059965133667,-4.749433994293213,-0.012095394544303415,-0.12186762,-0.05955936,0
8.703859329223633,1.7598819732666016,-4.827126502990723,-0.005872045177966356,-0.13927728,-0.021991149,0
8.614603996276855,1.7902966737747192,-4.891650676727295,0.01476938184350729,-0.07452556,0.016798794,10
8.510571479797362,1.7545019388198853,-4.910829067230225,0.037483394145965576,-0.018325957,0.044898596,10
8.461256980895996,1.6613950729370115,-4.926201820373535,0.048572178930044174,0.029321533,0.06261369,10
8.461520195007324,1.5436992645263672,-4.9641642570495605,0.045964300632476814,0.043066,0.058643065,10
8.447910308837889,1.47344708442688,-4.988381862640381,0.03475430607795715,0.039095376,0.04337143,10
8.424304962158201,1.4487360715866089,-4.97072172164917,0.018895873799920082,0.08521569999999999,0.033292156,10
8.410707473754883,1.446747064590454,-4.938208103179932,0.0023959018290042877,0.09712757,0.036957346,10
8.437640190124513,1.4431331157684326,-4.917329788208008,-0.010350635275244713,0.089186326,0.037873644,10
8.527439117431639,1.429772138595581,-4.91197681427002,-0.01716303639113903,0.059864793,0.0580322,10
8.632821083068848,1.41123366355896,-4.9037370681762695,-0.01870429143309593,0.038179077,0.07086037,10
8.691251754760742,1.3948230743408203,-4.888805389404297,-0.01974690705537796,0.02076942,0.064446285,10
8.696113586425781,1.3863381147384644,-4.872528076171875,-0.020494218915700912,0.016798794,0.04734206,10
8.652878761291504,1.3861799240112305,-4.854260921478272,-0.019750857725739483,0.008246681,0.018325957,10
8.623739242553711,1.3801088333129885,-4.825991630554199,-0.01756484992802143,0.007941248,0.007941248,10
8.627317428588867,1.361744046211243,-4.811258316040039,-0.018164897337555885,0.04917465,0.011911872,10
8.641510009765625,1.3473221063613892,-4.8119215965271,-0.01836893893778324,0.047647487,0.009773844,10
8.661332130432129,1.3485900163650513,-4.8074212074279785,-0.016743442043662068,0.02443461,0.0061086523,10
8.680334091186522,1.354423761367798,-4.782559871673584,-0.014948027208447456,0.0015271631,0.00061086525,10
8.695608139038086,1.372606635093689,-4.759724140167236,-0.01377455983310938,-0.015271631,-0.00030543262000000003,10
8.706902503967285,1.3818901777267456,-4.747414588928223,-0.012211534194648266,-0.0125227375,-0.002443461,10
8.724191665649414,1.3775633573532104,-4.736509323120117,-0.010912730358541012,-0.009468411,0.002443461,10
8.7445068359375,1.3684329986572266,-4.727336883544922,-0.010972613468766212,-0.027794369,-0.008857545999999999,10
8.751988410949707,1.3714416027069092,-4.724299430847168,-0.012481352314352991,-0.03726278,-0.0076358155,10
8.736676216125487,1.396799087524414,-4.73118257522583,-0.0148167721927166,-0.032070424,-0.013133603,10
8.70712947845459,1.41840660572052,-4.741780757904053,-0.015504390001296997,-0.0290161,-0.01985312,10
8.68181324005127,1.428668975830078,-4.75238847732544,-0.011789573356509209,-0.0125227375,-0.0033597588,10
8.670281410217285,1.4264888763427734,-4.760164260864258,-0.00742425723001361,-0.018020526,-0.002443461,10
8.676227569580076,1.4136105775833132,-4.76941442489624,-0.005100298207253218,-0.03940081,0.0009162979,10
8.692573547363281,1.401112675666809,-4.78893518447876,-0.005381091963499785,-0.037873644,0.0036651916,10
8.688268661499022,1.4046117067337036,-4.813579082489014,-0.007183520589023829,-0.022296581,0.007330383,10
8.656949043273926,1.4204033613204956,-4.826411247253418,-0.007237944286316633,-0.015882496,-0.0015271631,10
8.621413230895996,1.431946039199829,-4.829091548919678,-0.0075471275486052045,-0.014049901000000002,-0.00030543262000000003,10
8.598584175109862,1.427040934562683,-4.82994556427002,-0.006886774208396672,-0.02321288,-0.01038471,10
8.607742309570312,1.420473575592041,-4.832359313964844,-0.004280225839465857,-0.02321288,0.016493361,10
8.630911827087402,1.4197686910629272,-4.833818435668945,-0.0007747103227302433,-0.014049901000000002,0.015577064,10
8.638648986816406,1.4156527519226074,-4.838255405426025,0.0013064705999568105,-0.0036651916,0.020463986,10
8.614824295043945,1.4071401357650757,-4.840413093566895,0.0010975791374221444,-0.004886922,0.0061086523,10
8.59199047088623,1.394384503364563,-4.839135646820068,-0.0004762257158290595,-0.003970624,0.0015271631,10
8.583929061889647,1.3710767030715942,-4.846047878265381,-0.0035707415081560607,-0.005192355,0.0033597588,10
8.599018096923826,1.3505903482437134,-4.855127811431885,-0.007140476256608962,-0.008246681,0.007941248,10
8.623122215270996,1.3550734519958496,-4.865224361419678,-0.007915868423879147,0.008552114,0.02321288,10
8.632623672485353,1.3799161911010742,-4.871239185333252,-0.0060876975767314425,0.01740966,0.02107485,10
8.621517181396483,1.4014467000961304,-4.871408939361572,-0.0038544186390936375,0.013744468,0.007330383,10
8.602785110473633,1.3989924192428589,-4.8717308044433585,-0.002229416510090232,-0.00030543262000000003,-0.005497787,10
8.600227355957031,1.3843566179275513,-4.867687225341797,-0.0036902392748743296,-0.0036651916,0.008552114,10
8.617753028869629,1.3705426454544067,-4.865217208862305,-0.0047659166157245645,-0.0012217305,0.01160644,10
8.625767707824707,1.3686879873275757,-4.869444847106934,-0.004263095092028379,0.006414085,0.0290161,10
8.627424240112305,1.3856574296951294,-4.87096118927002,-0.003494990058243275,0.014966198,0.025045475,10
8.62674617767334,1.402377009391785,-4.8621439933776855,-0.0043755569495260715,0.004886922,0.004886922,10
8.621744155883789,1.4091485738754272,-4.849159717559815,-0.0076540177688002595,0.018020526,0.016493361,10
8.616354942321777,1.4106310606002808,-4.841769218444824,-0.010480604134500028,0.020158553,0.014660766,10
8.616426467895508,1.400294065475464,-4.834578990936278,-0.01018913183361292,0.01740966,0.008857545999999999,10
8.625997543334961,1.3827904462814329,-4.834206581115723,-0.00876761507242918,0.010995574,0.02107485,10
8.636751174926758,1.3715959787368774,-4.837582588195801,-0.007803315296769142,0.003970624,0.01282817,10
8.636476516723633,1.3663984537124634,-4.837040424346924,-0.008050939068198204,0.017104227,0.018936822,10
8.629295349121094,1.359345316886902,-4.831116199493408,-0.009139787405729294,0.009773844,0.011301007,10
8.628557205200195,1.3554564714431765,-4.826489448547363,-0.009375225752592087,0.011301007,0.013744468,10
8.632455825805664,1.356434345245361,-4.81690788269043,-0.008701150305569172,0.02565634,0.020463986,10
8.639742851257324,1.3619116544723509,-4.803708076477051,-0.007634861394762994,0.013439035,0.01160644,10
8.65150260925293,1.3616493940353394,-4.802928447723389,-0.007695000153034925,0.025961773,0.022602014,10
8.656137466430664,1.3586388826370241,-4.818427562713623,-0.00814674887806177,0.031154128,0.019547688,10
8.641969680786133,1.3508307933807373,-4.831399440765381,-0.0093146450817585,0.009162978,0.0061086523,10
8.629866600036621,1.3404719829559326,-4.820637702941895,-0.010405249893665314,-0.010995574,0.002443461,10
8.632880210876465,1.3388099670410156,-4.809328079223633,-0.011736661195755005,-0.003970624,0.00580322,10
8.655754089355469,1.3560738563537598,-4.793863296508789,-0.012010554783046246,-0.009468411,0.01282817,10
8.67789363861084,1.3759137392044067,-4.786056518554688,-0.010526414029300213,0.01863139,0.01985312,10
8.669709205627441,1.3727153539657593,-4.787893772125244,-0.00865117646753788,0.0143553335,0.018020526,10
8.654280662536621,1.3528019189834597,-4.804556369781494,-0.008441376499831676,0.018325957,0.004886922,10
8.654285430908201,1.3202438354492188,-4.8197360038757315,-0.007980613969266416,0.004276057,0.003970624,10
8.650285720825195,1.2998366355895996,-4.817952156066895,-0.008129504509270191,0.005192355,0.016798794,10
8.65223217010498,1.2947423458099363,-4.806490898132324,-0.0077657531946897515,0.0009162979,0.0027488936,10
8.663608551025389,1.3039113283157349,-4.802168846130371,-0.008222904987633228,-0.007941248,0.014660766,10
8.672651290893555,1.3202736377716064,-4.803901195526123,-0.008846337907016277,0.005497787,0.0125227375,10
8.661420822143555,1.3397554159164429,-4.807236671447754,-0.009536675177514551,0.016798794,-0.00061086525,10
8.640520095825195,1.3487921953201294,-4.8068504333496085,-0.009975330904126169,0.01282817,0.0012217305,10
8.635330200195312,1.345212459564209,-4.801780700683594,-0.010855739004909992,0.008246681,0.0012217305,10
8.645186424255371,1.3424888849258425,-4.798786163330078,-0.010205615311861038,0.0021380284,0.016798794,10
8.65950870513916,1.3496040105819702,-4.795973777770996,-0.009888865053653715,0.013439035,0.024129177,10
8.663040161132812,1.3582394123077393,-4.7902116775512695,-0.009397394955158234,0.016187929,0.016493361,10
8.659126281738281,1.3672770261764526,-4.7806830406188965,-0.009752854704856873,0.0033597588,0.004276057,10
8.653672218322754,1.3673086166381836,-4.7768516540527335,-0.010478874668478966,0.003970624,0.006414085,10
8.659344673156737,1.359424114227295,-4.780042171478272,-0.010608810931444168,0.002443461,0.006414085,10
8.671489715576174,1.3479195833206177,-4.787299633026123,-0.010941867716610432,0.017715093,0.016187929,10
8.674487113952638,1.3416364192962646,-4.786178112030028,-0.010608348064124584,0.013439035,0.02076942,10
8.669956207275389,1.3419028520584106,-4.781655311584473,-0.010224622674286366,0.01282817,0.021991149,10
8.663322448730469,1.3496512174606323,-4.773509502410889,-0.01065635308623314,0.022907447,0.014966198,10
8.665643692016603,1.3415305614471436,-4.771829128265381,-0.011092571541666985,0.009468411,0.004276057,10
8.672616004943848,1.3214465379714966,-4.776715278625488,-0.0131247416138649,0.0009162979,0.00580322,10
8.680404663085938,1.3095933198928833,-4.776848793029785,-0.013685513287782669,0.009773844,0.0061086523,10
8.687658309936522,1.3065299987792969,-4.768299102783203,-0.01470818091183901,-0.004581489,0.004581489,10
8.688668251037598,1.3148547410964966,-4.760467052459717,-0.0165738333016634,-0.0033597588,0.015882496,10
8.682253837585451,1.3347634077072144,-4.762625694274902,-0.0167329553514719,-0.002443461,0.007330383,10
8.68723201751709,1.349494457244873,-4.769256591796875,-0.01634434051811695,0.00580322,0.0076358155,10
8.69196891784668,1.3524917364120483,-4.776086330413818,-0.014763721264898775,0.0018325958,0.004581489,10
8.690814971923826,1.3483880758285522,-4.779151916503906,-0.014802355319261553,0.002443461,0.0125227375,10
8.677914619445799,1.337394118309021,-4.779521942138672,-0.014404913410544397,0.007941248,0.006414085,10
8.662674903869629,1.3225553035736084,-4.77216100692749,-0.01458840910345316,-0.002443461,0.009162978,10
8.668398857116701,1.3227893114089966,-4.760492324829102,-0.013528394512832165,0.010079277,0.016798794,10
8.684918403625487,1.3372902870178225,-4.753289699554443,-0.011850452981889248,0.029932396,0.022296581,10
8.685300827026367,1.3467485904693604,-4.749162673950195,-0.010629776865243912,0.014660766,0.004581489,10
8.685215950012207,1.339950680732727,-4.74316930770874,-0.009264051914215088,0.014966198,0.01038471,10
8.686470985412598,1.3295300006866455,-4.744221210479736,-0.00985348504036665,0.015882496,0.013133603,10
8.685309410095215,1.3170692920684814,-4.7483625411987305,-0.010767053812742232,0.00061086525,0.009162978,10
8.682517051696777,1.3097223043441772,-4.751532554626465,-0.010446645319461824,-0.007330383,0.010995574,10
8.679555892944336,1.3102786540985107,-4.750322341918945,-0.010692683979868887,-0.008552114,0.009468411,10
8.677045822143555,1.3200534582138062,-4.7476420402526855,-0.011467302218079569,0.0036651916,0.004276057,10
8.672530174255371,1.324694275856018,-4.7495293617248535,-0.011612518690526484,0.014966198,0.00061086525,10
8.668023109436035,1.3265594244003296,-4.755544662475586,-0.011604935862123966,0.0143553335,0.002443461,10
8.666629791259767,1.3204871416091921,-4.7563815116882315,-0.01320033334195614,0.016187929,0.0125227375,10
8.671817779541017,1.310276746749878,-4.7548561096191415,-0.013084730133414268,0.0033597588,0.0061086523,10
8.682720184326174,1.3182785511016846,-4.752941131591797,-0.01323978416621685,0.003970624,0.009468411,10
8.691567420959473,1.3299193382263184,-4.747196674346924,-0.01269545778632164,0.0012217305,0.0009162979,10
8.70084285736084,1.3379638195037842,-4.748625755310059,-0.012176353484392166,-0.002443461,-0.00061086525,10
8.69929027557373,1.3301541805267334,-4.748109817504883,-0.01283524464815855,0.0036651916,0.00061086525,10
8.695067405700684,1.3214254379272459,-4.747283458709717,-0.013969425112009048,0.002443461,-0.004581489,10
8.697956085205076,1.3142017126083374,-4.742323875427246,-0.014576852321624756,0.004581489,0.0009162979,10
8.697535514831543,1.3117295503616333,-4.739309787750244,-0.0140925832092762,0.00061086525,0.0070249503,10
8.703606605529785,1.319874882698059,-4.735494136810303,-0.013900166377425194,0.00061086525,0.009162978,10
8.707221984863281,1.3198344707489014,-4.737014293670653,-0.013135571964085102,-0.0030543262,-0.0036651916,10
8.709088325500487,1.3194620609283447,-4.735230445861816,-0.01266474649310112,-0.0067195175,-0.002443461,10
8.717768669128418,1.314163088798523,-4.7286696434021,-0.013659448362886906,-0.0125227375,0.00061086525,10
8.718790054321289,1.303281307220459,-4.726882457733153,-0.012922843918204308,-0.009773844,0.0018325958,10
8.718820571899414,1.2963587045669556,-4.730670928955078,-0.012412574142217636,0.005192355,0.00580322,10
8.709955215454103,1.2999396324157717,-4.730392932891847,-0.010960791260004044,0.00580322,0.004581489,10
8.696106910705566,1.3064652681350708,-4.730437755584717,-0.011355732567608356,-0.004276057,0.005497787,10
8.690036773681639,1.3104798793792725,-4.728098392486572,-0.01307824719697237,0.0027488936,0.01160644,10
8.692767143249513,1.3087565898895264,-4.727834701538086,-0.013371015898883344,-0.00030543262000000003,0.0061086523,10
8.699533462524414,1.3066251277923584,-4.739728927612305,-0.013836451806128023,-0.002443461,0.007330383,10
8.697985649108888,1.312754511833191,-4.745516777038574,-0.013493562117218971,-0.008552114,0.008857545999999999,10
8.694493293762207,1.3225125074386597,-4.7453227043151855,-0.013719108887016771,-0.004886922,0.003970624,10
8.695082664489746,1.3243403434753418,-4.745922565460205,-0.012223223224282265,-0.005192355,0.010079277,10
8.702990531921388,1.323444962501526,-4.744574069976807,-0.011696789413690569,-0.0036651916,-0.0021380284,10
8.70189380645752,1.327298283576965,-4.74904727935791,-0.01172072347253561,-0.0021380284,-0.0009162979,10
8.695201873779299,1.322779417037964,-4.744537353515625,-0.012268462218344213,0.0027488936,0.00580322,10
8.700331687927246,1.3155115842819214,-4.73646879196167,-0.011726894415915012,-0.003970624,0.00030543262000000003,10
8.706291198730469,1.3174912929534912,-4.724681854248047,-0.011850334703922272,-0.018325957,0.0033597588,10
8.706730842590332,1.3263514041900637,-4.713746070861816,-0.010453534312546251,-0.009468411,0.0009162979,10
8.712709426879883,1.3278762102127075,-4.7114906311035165,-0.010549082420766355,-0.0027488936,0.004276057,10
8.714469909667969,1.3249390125274658,-4.704167366027832,-0.010817415080964564,0.006414085,0.004276057,10
8.713832855224611,1.319793462753296,-4.705018043518066,-0.01164789032191038,-0.003970624,0.005192355,10
8.705121040344237,1.317765474319458,-4.715947151184082,-0.012456040829420091,0.0033597588,0.007330383,10
8.693856239318848,1.3183537721633911,-4.732583045959473,-0.012946675531566143,-0.004276057,-0.004886922,10
8.687197685241701,1.3127471208572388,-4.749166011810303,-0.012180517427623272,-0.003970624,-0.0009162979,10
8.679691314697267,1.3007848262786863,-4.7584547996521,-0.01159904059022665,0.00030543262000000003,0.0009162979,10
8.681343078613281,1.2946194410324097,-4.759260177612305,-0.01130448654294014,0.0015271631,0.007330383,10
8.688885688781737,1.2961598634719849,-4.756516456604004,-0.009968861006200314,-0.00061086525,0.00580322,10
8.695387840270996,1.2937964200973509,-4.756639003753662,-0.010136707685887814,-0.0067195175,0.01038471,10
8.708667755126951,1.2891439199447632,-4.752313137054443,-0.00989293586462736,-0.013439035,0.01160644,10
8.713018417358397,1.2988169193267822,-4.73892879486084,-0.008564773015677929,-0.0125227375,0.008552114,10
8.709871292114258,1.3143194913864136,-4.72587251663208,-0.008720328100025654,-0.011911872,0.0070249503,10
8.702071189880371,1.3279198408126829,-4.716248035430908,-0.009704038500785828,-0.014660766,0.002443461,10
8.691971778869629,1.3333139419555664,-4.720877170562744,-0.010416979901492596,-0.004581489,0.005497787,10
8.691797256469728,1.33334219455719,-4.728936672210693,-0.011149600148200987,-0.012217305,0.0030543262,10
8.691840171813965,1.3259648084640503,-4.742205619812012,-0.012766043655574322,-0.0070249503,0.00580322,10
8.694243431091309,1.3216121196746826,-4.755236625671387,-0.012643186375498772,-0.013133603,0.00061086525,10
8.690693855285645,1.3191074132919312,-4.758355617523193,-0.010613546706736088,-0.00580322,0.003970624,10
8.694936752319336,1.3186711072921753,-4.746835708618164,-0.009312343783676624,-0.0009162979,0.0033597588,10
8.700210571289062,1.314498782157898,-4.7373929023742685,-0.009190688841044905,-0.010079277,-0.0012217305,10
8.701629638671875,1.3124246597290041,-4.732111930847168,-0.009746930561959743,-0.019242255,-0.01160644,10
8.703376770019531,1.3072365522384644,-4.728114128112793,-0.009643205441534521,-0.016493361,-0.0027488936,10
8.70320987701416,1.3003753423690796,-4.72607421875,-0.009358872659504414,-0.012217305,-0.00030543262000000003,10
8.695523262023926,1.2963383197784424,-4.723063945770264,-0.009700332768261431,-0.010690141499999998,0.0027488936,10
8.689677238464355,1.2932209968566897,-4.72609806060791,-0.00982540659606457,-0.007941248,0.005192355,10
8.679529190063478,1.2957340478897097,-4.730331897735597,-0.008871850557625294,-0.006414085,0.0015271631,10
8.675785064697267,1.304857850074768,-4.7374305725097665,-0.009108740836381912,-0.00580322,0.0027488936,10
8.668844223022461,1.316619634628296,-4.741457939147949,-0.009420967660844326,-0.009162978,0.006414085,10
8.664715766906737,1.3222126960754397,-4.748157024383545,-0.010396650061011314,-0.004581489,0.008857545999999999,10
8.662336349487305,1.3249133825302124,-4.758915424346924,-0.011070167645812036,0.01160644,0.0061086523,10
8.655438423156737,1.3225398063659668,-4.7657151222229,-0.011818142607808113,0.0033597588,0.004886922,10
8.647703170776367,1.3077208995819092,-4.762749671936035,-0.01147698238492012,-0.0143553335,0.0070249503,10
8.650979042053223,1.3029649257659912,-4.754549980163574,-0.010962234809994698,-0.004886922,0.009773844,10
8.666779518127441,1.3190255165100098,-4.742454051971436,-0.008240526542067528,0.0061086523,0.02443461,10
8.687631607055664,1.3489542007446291,-4.729830265045166,-0.005834177136421204,0.003970624,0.022296581,10
8.692366600036621,1.3465713262557983,-4.730956554412842,-0.004322581458836794,0.008552114,0.009162978,10
8.681997299194336,1.313565969467163,-4.735844135284424,-0.003291425760835409,0.009162978,0.0027488936,10
8.670619964599611,1.2765388488769531,-4.746269226074219,-0.0048021599650383,0.007330383,0.0009162979,10
8.669571876525879,1.2510250806808472,-4.7531471252441415,-0.006940066814422607,-0.004886922,0.003970624,10
8.674763679504395,1.246766448020935,-4.7516441345214835,-0.009087090380489826,0.0009162979,0.0143553335,10
8.680505752563478,1.2625024318695068,-4.74521017074585,-0.008120888844132423,0.0033597588,0.016493361,10
8.684715270996094,1.2826104164123535,-4.7446932792663565,-0.008663763292133808,0.002443461,0.009773844,10
8.684032440185549,1.2972828149795532,-4.7462897300720215,-0.008261815644800663,0.007941248,0.015882496,10
8.679563522338867,1.3035002946853638,-4.74747371673584,-0.009464059956371784,0.0012217305,0.004581489,10
8.683597564697267,1.2986319065093994,-4.739874362945557,-0.009543015621602535,-0.0018325958,0.004581489,10
8.692990303039549,1.2938077449798584,-4.731279373168945,-0.010333236306905745,-0.009162978,0.0070249503,10
8.703521728515625,1.2982178926467896,-4.723897933959961,-0.011364313773810863,-0.002443461,0.012217305,10
8.706335067749022,1.3103184700012207,-4.722134590148926,-0.012445601634681223,-0.00030543262000000003,0.0125227375,10
8.708698272705076,1.3228697776794434,-4.7192349433898935,-0.012285424396395685,0.0012217305,0.003970624,10
8.705934524536133,1.3219765424728394,-4.714651107788086,-0.012682109139859676,-0.0033597588,-0.0015271631,10
8.706158638000487,1.3101561069488523,-4.72575569152832,-0.014071336016058922,0.0012217305,0.008246681,10
8.711906433105469,1.291944146156311,-4.729511260986328,-0.014139303006231785,-0.0033597588,0.00580322,10
8.710570335388184,1.2777062654495241,-4.728865623474121,-0.012566715478897095,0.00061086525,0.0070249503,10
8.711251258850098,1.2720931768417358,-4.730883598327637,-0.011943882331252098,-0.013439035,-0.0027488936,10
8.715553283691406,1.2767006158828735,-4.728484153747559,-0.011923092417418957,-0.0067195175,0.00580322,10
8.711995124816895,1.2803491353988647,-4.724549293518066,-0.012462507002055643,0.0015271631,-0.0036651916,10
8.70655632019043,1.2839322090148926,-4.7339606285095215,-0.014155590906739237,-0.0018325958,-0.004581489,10
8.698132514953612,1.2809113264083862,-4.739538192749023,-0.013763511553406715,0.0067195175,0.010690141499999998,10
8.69350528717041,1.2728224992752075,-4.7375311851501465,-0.01326111052185297,-0.0018325958,0.0067195175,10
8.69330883026123,1.2705011367797852,-4.732048511505127,-0.013278460130095482,-0.0015271631,0.009162978,10
8.696310043334961,1.2834304571151731,-4.7343406677246085,-0.013882123865187168,-0.008857545999999999,0.0061086523,10
8.694869995117188,1.294933557510376,-4.737324237823486,-0.014051498845219612,0.0015271631,0.0021380284,10
8.690373420715332,1.3039475679397583,-4.738908767700195,-0.01351846382021904,0.012217305,0.007330383,10
8.684676170349121,1.3107924461364746,-4.738760471343994,-0.012674245983362198,0.010079277,0.009162978,10
8.683121681213379,1.311350703239441,-4.7352375984191895,-0.012445111759006977,0.010690141499999998,0.013439035,10
8.685470581054688,1.3036470413208008,-4.7393317222595215,-0.012983550317585468,0.01985312,0.011911872,10
8.688875198364258,1.2945153713226318,-4.747329235076903,-0.012493405491113664,0.0070249503,0.00580322,10
8.687877655029299,1.2875982522964478,-4.746306419372559,-0.0132668511942029,0.0036651916,0.004581489,10
8.689699172973633,1.2962270975112915,-4.737220287322998,-0.012700105085968971,0.004276057,0.0067195175,10
8.703848838806152,1.3136587142944336,-4.723962783813477,-0.010765206068754196,0.0143553335,0.01160644,10
8.714788436889647,1.326818585395813,-4.70998477935791,-0.009000375866889955,0.008246681,0.014049901000000002,10
8.711342811584473,1.32183837890625,-4.7065863609313965,-0.008495684713125229,0.013133603,0.009162978,10
8.708783149719237,1.303896427154541,-4.711820125579834,-0.009446145035326479,0.011911872,0.003970624,10
8.707470893859862,1.2866311073303225,-4.719544410705566,-0.01123483758419752,0.0015271631,0.016187929,10
8.706928253173826,1.2816816568374634,-4.727438926696777,-0.012982643209397793,0.009468411,0.014660766,10
8.701889991760254,1.2871555089950562,-4.7308855056762695,-0.013112158514559269,0.018325957,0.015271631,10
8.693466186523438,1.3009352684020996,-4.725725173950195,-0.013124564662575722,0.013133603,-0.00061086525,10
8.687398910522461,1.307034969329834,-4.725666522979736,-0.013248488306999208,0.0143553335,0.0009162979,10
8.69328498840332,1.3022228479385376,-4.725919246673584,-0.013244680128991604,0.015577064,-0.0021380284,10
8.698829650878906,1.2920808792114258,-4.731098651885986,-0.013335210271179676,0.015271631,0.0030543262,10
8.704246520996094,1.282206416130066,-4.72982120513916,-0.01377655379474163,0.008857545999999999,0.0036651916,10
8.709012985229492,1.2777122259140017,-4.727094650268555,-0.014669779688119888,0.013133603,0.0067195175,10
8.708209991455076,1.283124566078186,-4.716223239898682,-0.015260811895132063,0.0009162979,-0.0033597588,10
8.708333015441895,1.2959330081939695,-4.7035675048828125,-0.015983853489160538,0.006414085,0.0033597588,10
8.715785980224611,1.302277445793152,-4.700277805328369,-0.01703798770904541,0.008246681,0.0067195175,10
8.719472885131836,1.3019014596939087,-4.700658321380615,-0.01752970926463604,0.00580322,0.009468411,10
8.719625473022461,1.295046091079712,-4.700963973999023,-0.01709684915840626,0.009773844,-0.004276057,10
8.717577934265138,1.2879518270492554,-4.701456069946289,-0.016967706382274628,0.02076942,-0.00030543262000000003,10
8.707883834838867,1.2924696207046509,-4.697468280792236,-0.017668697983026505,0.013439035,0.002443461,10
8.706857681274414,1.3006112575531006,-4.686829566955566,-0.017948020249605182,0.011911872,0.008552114,10
8.716958999633789,1.3039623498916626,-4.687071800231934,-0.01762800291180611,0.009468411,0.003970624,10
8.725719451904299,1.311760425567627,-4.6891512870788565,-0.0161697268486023,0.01863139,0.014660766,10
8.724111557006836,1.3212321996688845,-4.681460380554199,-0.015159856528043747,0.015271631,0.013133603,10
8.723119735717772,1.3230655193328855,-4.670250415802002,-0.014970386400818825,0.004886922,0.007941248,10
8.72319221496582,1.320692777633667,-4.661853790283203,-0.01502873934805393,0.011911872,0.015882496,10
8.718569755554201,1.3191555738449097,-4.662425518035889,-0.01538578327745199,0.01740966,0.014049901000000002,10
8.713824272155763,1.3152709007263184,-4.659727096557617,-0.01357852015644312,0.012217305,0.009773844,10
8.71104907989502,1.3058547973632812,-4.650403022766113,-0.012650368735194206,-0.008552114,0.0009162979,10
8.723183631896973,1.2973915338516235,-4.655198097229004,-0.013239786028862,-0.00030543262000000003,0.005192355,10
8.731815338134767,1.2983673810958862,-4.661417484283447,-0.013315413147211077,0.003970624,0.008857545999999999,10
8.732968330383299,1.297349452972412,-4.657617092132568,-0.012961258180439472,0.009468411,-0.0012217305,10
8.729520797729492,1.2936956882476809,-4.64954137802124,-0.012983730062842369,-0.0015271631,-0.0061086523,10
8.733153343200684,1.288086175918579,-4.6452598571777335,-0.01443624310195446,-0.01160644,-0.0027488936,10
8.750526428222656,1.283596396446228,-4.652827739715576,-0.015322566032409668,0.00030543262000000003,0.004581489,10
8.76628589630127,1.2879174947738647,-4.665539264678955,-0.015707852318882942,-0.006414085,0.004581489,10
8.764443397521973,1.2984365224838257,-4.659746646881104,-0.015775945037603382,-0.010690141499999998,-0.0036651916,10
8.748805999755861,1.3052805662155151,-4.6546311378479,-0.014149674214422703,-0.02321288,0.004886922,10
8.734313011169434,1.3106603622436523,-4.6563987731933585,-0.01156116370111704,-0.0143553335,0.00030543262000000003,10
8.724798202514647,1.3134270906448364,-4.663355350494385,-0.010183125734329224,-0.0070249503,0.002443461,10
8.725702285766603,1.3119553327560425,-4.667325019836426,-0.009477601386606692,0.00061086525,0.00030543262000000003,10
8.726737022399902,1.3059906959533691,-4.670495986938477,-0.010141069069504738,-0.011301007,0.004886922,10
8.728507995605469,1.3020936250686646,-4.672412395477295,-0.011372027918696405,-0.013439035,0.005192355,10
8.729959487915039,1.2996162176132202,-4.6758460998535165,-0.013054938055574894,-0.0009162979,-0.0015271631,10
8.729737281799316,1.3013670444488523,-4.677096366882324,-0.013407917693257332,0.0021380284,0.0070249503,10
8.727540016174316,1.3076452016830444,-4.677023887634277,-0.0130375437438488,0.00580322,0.0030543262,10
8.726252555847168,1.3165417909622192,-4.679734230041504,-0.012638960964977741,-0.0009162979,-0.0018325958,10
8.731731414794924,1.3194013833999634,-4.679580211639403,-0.01238149590790272,-0.004886922,-0.0018325958,10
8.736397743225098,1.322970628738403,-4.684588432312012,-0.013562716543674469,-0.0012217305,0.0033597588,10
8.735420227050781,1.318444013595581,-4.684527397155762,-0.014216331765055656,-0.01038471,0.005192355,10
8.735856056213379,1.3116697072982788,-4.673019886016847,-0.013963351026177406,-0.0143553335,0.0033597588,10
8.741206169128418,1.3091672658920288,-4.653195381164551,-0.01268812455236912,-0.017715093,-0.0033597588,10
8.74994945526123,1.3068232536315918,-4.646352291107178,-0.011262987740337849,-0.015882496,-0.006414085,10
8.756416320800781,1.310232400894165,-4.652031421661377,-0.010793391615152359,-0.018936822,0.0012217305,10
8.754757881164549,1.3149067163467407,-4.655257701873778,-0.010305603034794329,-0.018936822,0.0033597588,10
8.747074127197267,1.3126133680343628,-4.654275894165039,-0.01035960391163826,-0.016493361,0.0009162979,10
8.740381240844728,1.3040663003921509,-4.655211925506592,-0.010679278522729874,-0.016493361,-0.007330383,10
8.738422393798826,1.2988086938858032,-4.6655755043029785,-0.01140526682138443,-0.022296581,-0.008857545999999999,10
8.731764793395996,1.3043079376220703,-4.676840305328369,-0.012282844632863998,-0.0125227375,0.0012217305,10
8.722700119018555,1.3210800886154177,-4.685320854187012,-0.014957236126065252,-0.006414085,0.0009162979,10
8.710012435913086,1.3395934104919434,-4.692082405090332,-0.01600080356001854,0.0015271631,0.0015271631,10
8.703439712524414,1.3555254936218262,-4.69548225402832,-0.01561402063816786,0.008857545999999999,0.007330383,10
8.699975967407228,1.365267276763916,-4.7029995918273935,-0.015519717708230019,-0.002443461,0.0061086523,10
8.703009605407715,1.3662197589874268,-4.708045482635498,-0.015398482792079447,0.010079277,0.013744468,10
8.708267211914062,1.3648169040679932,-4.706664085388184,-0.01510209962725639,0.01038471,0.014049901000000002,10
8.711029052734375,1.3551429510116575,-4.717219829559326,-0.014605478383600712,0.0076358155,0.01740966,10
8.710502624511719,1.341593623161316,-4.720250606536865,-0.014527265913784504,0.00061086525,0.013133603,10
8.714730262756348,1.3280194997787476,-4.72086238861084,-0.014770639128983019,0.011911872,0.017104227,10
8.717897415161133,1.3118730783462524,-4.717958450317383,-0.01563420705497265,0.011911872,0.013744468,10
8.728463172912598,1.301357984542847,-4.7014360427856445,-0.01655883714556694,0.004581489,0.010690141499999998,10
8.738438606262207,1.2962194681167605,-4.688644409179688,-0.016642030328512192,0.004276057,0.007330383,10
8.740618705749513,1.3025039434432983,-4.6794471740722665,-0.01677905209362507,-0.004276057,0.009162978,10
8.742437362670897,1.3125776052474976,-4.676346778869629,-0.016354728490114212,-0.0125227375,0.004581489,10
8.741781234741211,1.319618821144104,-4.678390979766847,-0.015924684703350067,-0.0061086523,0.0018325958,10
8.733066558837889,1.3153226375579834,-4.68264102935791,-0.013964781537652016,-0.0036651916,-0.00061086525,10
8.722919464111326,1.302882194519043,-4.682281017303467,-0.013305600732564926,-0.01740966,0.003970624,10
8.734066963195799,1.295454025268555,-4.670111179351807,-0.013668768107891084,-0.015271631,-0.0018325958,10
8.739686012268066,1.309316873550415,-4.660398483276367,-0.012073817662894726,-0.022907447,-0.0015271631,10
8.749369621276855,1.3324103355407717,-4.666134834289551,-0.008940130472183228,-0.0070249503,0.0015271631,10
8.750839233398438,1.3485221862792969,-4.676850318908691,-0.008252188563346863,-0.0018325958,-0.00061086525,10
8.74041748046875,1.3398598432540894,-4.681705951690674,-0.007909579202532768,-0.00580322,-0.014049901000000002,10
8.726978302001951,1.3163063526153564,-4.690867900848389,-0.009323333390057087,-0.0143553335,-0.0012217305,10
8.718025207519531,1.291859149932861,-4.709203720092773,-0.011803945526480676,-0.017715093,0.00580322,10
8.712686538696289,1.2787426710128784,-4.7304115295410165,-0.0115389721468091,-0.0033597588,0.011301007,10
8.704184532165527,1.2871054410934448,-4.745208263397217,-0.012190475128591059,-0.0061086523,0.004581489,10
8.699099540710451,1.3026115894317627,-4.7391629219055185,-0.011897173710167408,0.008246681,0.0070249503,10
8.698040008544924,1.3158351182937622,-4.737823009490967,-0.012185389176011086,0.014049901000000002,0.0143553335,10
8.703920364379883,1.3220478296279907,-4.738934516906738,-0.01168458815664053,0.009468411,0.008246681,10
8.714241027832031,1.3132696151733398,-4.743620872497559,-0.012312996201217176,0.002443461,0.018020526,10
8.723789215087889,1.3028101921081543,-4.741032123565674,-0.01228082738816738,0.0009162979,0.014660766,10
8.729121208190918,1.3013782501220703,-4.7318925857543945,-0.012451046146452429,-0.004886922,0.015882496,10
8.730693817138674,1.3120707273483276,-4.717401027679443,-0.012083154171705246,-0.01160644,-0.00030543262000000003,10
8.738015174865723,1.3194026947021484,-4.705140590667725,-0.012066012248396872,-0.012217305,-0.0030543262,10
8.741172790527344,1.3139410018920898,-4.700467109680176,-0.011827842332422732,-0.009773844,-0.0021380284,10
8.741114616394043,1.304493427276611,-4.700139999389648,-0.011523363180458546,-0.005192355,-0.00030543262000000003,10
8.744462013244629,1.2941527366638184,-4.702317714691162,-0.011052646674215794,-0.0030543262,-0.0018325958,10
8.747902870178223,1.2907040119171145,-4.699084281921387,-0.011033421382308006,-0.0125227375,0.009468411,10
8.747818946838379,1.2902494668960571,-4.697057723999023,-0.010066526010632515,-0.013439035,0.0070249503,10
8.744154930114746,1.2928630113601685,-4.692161083221436,-0.009774459525942802,-0.015882496,-0.0009162979,10
8.740283012390138,1.2976109981536863,-4.69066333770752,-0.010630477219820023,-0.013439035,-0.0015271631,10
8.736433982849121,1.3019256591796875,-4.696051120758057,-0.011951363645493984,-0.0076358155,-0.00061086525,10
8.731108665466309,1.304134726524353,-4.69960355758667,-0.011390923522412777,-0.0036651916,-0.00030543262000000003,10
8.728626251220701,1.3030471801757812,-4.704760551452637,-0.011178201995790005,-0.0070249503,0.002443461,10
8.724369049072267,1.3031086921691897,-4.711287021636963,-0.0105869984254241,-0.0033597588,0.0036651916,10
8.716587066650389,1.3059673309326172,-4.718493938446045,-0.0105885723605752,-0.0061086523,-0.0009162979,10
8.71226692199707,1.3115359544754028,-4.727293968200684,-0.010843139141798021,-0.0067195175,0.006414085,10
8.708785057067871,1.3172837495803833,-4.7287020683288565,-0.011460019275546074,-0.0015271631,0.004581489,10
8.708720207214355,1.323498249053955,-4.723114490509033,-0.01135448832064867,-0.008246681,0.009162978,10
8.706836700439451,1.3332968950271606,-4.7147321701049805,-0.01236212532967329,-0.0012217305,0.0070249503,10
8.704994201660156,1.3437535762786863,-4.707730293273926,-0.012643766589462757,-0.0021380284,0.0036651916,10
8.710576057434082,1.351156234741211,-4.707292079925537,-0.013957787305116652,-0.0033597588,0.014966198,10
8.722396850585938,1.3510047197341921,-4.712867259979248,-0.014480620622634888,0.0018325958,0.01160644,10
8.724924087524414,1.3433232307434082,-4.714291572570801,-0.013546906411647795,0.0030543262,0.008552114,10
8.715270042419434,1.3213423490524292,-4.713462829589844,-0.013085211627185343,0.00061086525,0.0021380284,10
8.708127021789549,1.308313488960266,-4.709599018096924,-0.013718383386731148,-0.009468411,0.005192355,10
8.710819244384767,1.3112776279449463,-4.703599452972412,-0.0134644340723753,-0.0012217305,0.003970624,10
8.71605396270752,1.3215062618255615,-4.699640274047852,-0.0122972521930933,0.00030543262000000003,0.015577064,10
8.714309692382812,1.3266054391860962,-4.705192565917969,-0.01035940367728472,0.009162978,0.010690141499999998,10
8.708847999572754,1.3156881332397459,-4.710333824157715,-0.008812204003334045,-0.00030543262000000003,0.0036651916,10
8.707221984863281,1.299165964126587,-4.719115257263184,-0.009034274145960808,0.0018325958,0.0027488936,10
8.703102111816406,1.2809110879898071,-4.735605239868164,-0.012404694221913816,-0.00580322,0.006414085,10
8.698838233947754,1.2755064964294434,-4.74200439453125,-0.014457005076110363,-0.00061086525,0.010995574,10
8.69190502166748,1.2867679595947266,-4.738615036010742,-0.015477834269404413,-0.0030543262,0.008552114,10
8.684815406799316,1.3061929941177368,-4.73741340637207,-0.013960309326648712,-0.0030543262,-0.002443461,10
8.684205055236816,1.321359157562256,-4.733774662017822,-0.013224374502897264,0.002443461,0.007330383,10
8.690265655517576,1.3220067024230957,-4.729589462280273,-0.013274595141410828,0.004276057,-0.0030543262,10
8.692869186401367,1.3169480562210083,-4.724024772644043,-0.013632001355290413,0.01282817,0.004581489,10
8.694201469421388,1.3126999139785769,-4.713967323303223,-0.013621177524328232,0.0015271631,0.01282817,10
8.703301429748535,1.313934564590454,-4.707782745361328,-0.013913004659116268,-0.009468411,0.003970624,10
8.707745552062987,1.320814847946167,-4.700843334197998,-0.01270775217562914,-0.008857545999999999,-0.0018325958,10
8.709328651428223,1.3257886171340942,-4.696195602416992,-0.012682907283306122,-0.0076358155,0.00030543262000000003,10
8.706707954406737,1.3258363008499146,-4.704875469207764,-0.013392261229455471,-0.0012217305,-0.004276057,10
8.707077980041504,1.3172749280929563,-4.714370250701903,-0.014262501150369644,0.0030543262,-0.0027488936,10
8.705331802368164,1.303311467170715,-4.720846176147461,-0.015379905700683594,-0.0021380284,-0.00061086525,10
8.70357608795166,1.293990969657898,-4.725341320037842,-0.01498223375529051,-0.01282817,0.0076358155,10
8.701022148132324,1.2894753217697144,-4.729137897491455,-0.0143900103867054,-0.0070249503,0.0061086523,10
8.699024200439451,1.2948123216629028,-4.731376647949219,-0.013704322278499605,0.00061086525,0.0009162979,10
8.701150894165039,1.3044253587722778,-4.730640411376953,-0.01325931865721941,-0.0021380284,-0.0018325958,10
8.704623222351074,1.3079893589019775,-4.723198890686035,-0.012633849866688251,-0.004276057,-0.00030543262000000003,10
8.70536994934082,1.3079705238342283,-4.727917671203613,-0.012985967099666595,-0.012217305,0.00030543262000000003,10
8.704776763916017,1.3112372159957886,-4.731677532196045,-0.014092252589762209,-0.004886922,0.008857545999999999,10
8.704076766967772,1.3130083084106443,-4.729974269866943,-0.013130275532603264,-0.007941248,0.005497787,10
8.702009201049805,1.3174972534179688,-4.718325138092041,-0.013495577499270441,-0.0070249503,-0.00061086525,10
8.69789981842041,1.3184765577316284,-4.710495948791504,-0.013737096451222895,-0.004581489,0.003970624,10
8.692119598388674,1.3161643743515017,-4.706685543060303,-0.013579221442341805,0.0012217305,0.0009162979,10
8.687215805053711,1.3107420206069946,-4.705986976623535,-0.014463789761066437,-0.0076358155,0.00030543262000000003,10
8.68941593170166,1.3033466339111328,-4.710406303405762,-0.014534944668412209,0.002443461,0.0125227375,10
8.688437461853027,1.293667554855347,-4.713139533996582,-0.014174454845488071,0.0067195175,-0.0012217305,10
8.688851356506348,1.2873514890670776,-4.710097789764403,-0.014973759651184082,-0.0009162979,0.0067195175,10
8.69617748260498,1.2953275442123413,-4.708385467529297,-0.015412291511893272,-0.0015271631,-0.0030543262,10
8.703159332275389,1.3070772886276243,-4.705294609069824,-0.014679135754704475,-0.0015271631,0.004886922,10
8.704521179199219,1.3194129467010498,-4.704892635345459,-0.013698249123990536,-0.0030543262,0.0036651916,10
